Time,header.seq,header.stamp.secs,header.stamp.nsecs,header.frame_id,orientation.x,orientation.y,orientation.z,orientation.w,orientation_covariance_0,orientation_covariance_1,orientation_covariance_2,orientation_covariance_3,orientation_covariance_4,orientation_covariance_5,orientation_covariance_6,orientation_covariance_7,orientation_covariance_8,angular_velocity.x,angular_velocity.y,angular_velocity.z,angular_velocity_covariance_0,angular_velocity_covariance_1,angular_velocity_covariance_2,angular_velocity_covariance_3,angular_velocity_covariance_4,angular_velocity_covariance_5,angular_velocity_covariance_6,angular_velocity_covariance_7,angular_velocity_covariance_8,linear_acceleration.x,linear_acceleration.y,linear_acceleration.z,linear_acceleration_covariance_0,linear_acceleration_covariance_1,linear_acceleration_covariance_2,linear_acceleration_covariance_3,linear_acceleration_covariance_4,linear_acceleration_covariance_5,linear_acceleration_covariance_6,linear_acceleration_covariance_7,linear_acceleration_covariance_8
1774725869.5739374,22435,1774725869,573105212,imu_link,-0.9512595924022341,0.30835029519731705,0.0042426535767364085,0.002698741390063482,0.0,0.0,0.0,0.0,0.0,0.0,0.0,0.0,0.0,-0.0021110629967497413,0.0026287451061837793,0.0003549476099780868,2.7491722135750453e-06,0.0,0.0,0.0,2.7491722135750453e-06,0.0,0.0,0.0,2.7491722135750453e-06,-0.11597344481277466,-0.029057104429244994,-9.801256504154205,7.53975837175367e-06,0.0,0.0,0.0,7.53975837175367e-06,0.0,0.0,0.0,7.53975837175367e-06
1774725869.5778835,22436,1774725869,577105212,imu_link,-0.9512638055295699,0.3083362315374712,0.004332296391924938,0.002678025138763795,0.0,0.0,0.0,0.0,0.0,0.0,0.0,0.0,0.0,-0.001985853076211668,0.0016149706101628732,0.000136973439696515,2.7491722135750453e-06,0.0,0.0,0.0,2.7491722135750453e-06,0.0,0.0,0.0,2.7491722135750453e-06,-0.10991293501281738,-0.02606607612991333,-9.827842332742692,7.53975837175367e-06,0.0,0.0,0.0,7.53975837175367e-06,0.0,0.0,0.0,7.53975837175367e-06
1774725869.581844,22437,1774725869,581105212,imu_link,-0.9512684075713779,0.3083207939330018,0.004432771376442811,0.0026561858110178103,0.0,0.0,0.0,0.0,0.0,0.0,0.0,0.0,0.0,-0.003198979079395367,0.00131737451940532,0.0002884331121845829,2.7491722135750453e-06,0.0,0.0,0.0,2.7491722135750453e-06,0.0,0.0,0.0,2.7491722135750453e-06,-0.11279609016036987,-0.028370638917922974,-9.820271598817826,7.53975837175367e-06,0.0,0.0,0.0,7.53975837175367e-06,0.0,0.0,0.0,7.53975837175367e-06
1774725869.5858848,22438,1774725869,585105212,imu_link,-0.9512716870701983,0.3083098484205656,0.004502322393266917,0.002635116425099303,0.0,0.0,0.0,0.0,0.0,0.0,0.0,0.0,0.0,-0.0021313786292429552,0.0029951595293474693,0.0002560223479750482,2.7491722135750453e-06,0.0,0.0,0.0,2.7491722135750453e-06,0.0,0.0,0.0,2.7491722135750453e-06,-0.11052094732284547,-0.020848938243865967,-9.803943526298523,7.53975837175367e-06,0.0,0.0,0.0,7.53975837175367e-06,0.0,0.0,0.0,7.53975837175367e-06
1774725869.5898886,22439,1774725869,589105212,imu_link,-0.9512699834202962,0.30831531842488036,0.0044891886175311545,0.0026325374964388253,0.0,0.0,0.0,0.0,0.0,0.0,0.0,0.0,0.0,-0.0017381559487686328,0.002197910580328979,0.001133853148558116,2.7491722135750453e-06,0.0,0.0,0.0,2.7491722135750453e-06,0.0,0.0,0.0,2.7491722135750453e-06,-0.10360725895881652,-0.015278760951995849,-9.795558840410232,7.53975837175367e-06,0.0,0.0,0.0,7.53975837175367e-06,0.0,0.0,0.0,7.53975837175367e-06
1774725869.593808,22440,1774725869,593105212,imu_link,-0.9512682074569367,0.3083207687714844,0.004489016560505243,0.002636239015499197,0.0,0.0,0.0,0.0,0.0,0.0,0.0,0.0,0.0,-0.002348846654041449,0.0015745836912717244,0.001167223843856248,2.7491722135750453e-06,0.0,0.0,0.0,2.7491722135750453e-06,0.0,0.0,0.0,2.7491722135750453e-06,-0.11484568004417418,-0.018338435802459717,-9.784761718582153,7.53975837175367e-06,0.0,0.0,0.0,7.53975837175367e-06,0.0,0.0,0.0,7.53975837175367e-06
1774725869.5978816,22441,1774725869,597105212,imu_link,-0.9512679976215527,0.3083210512570546,0.004523886264308161,0.002619256744564859,0.0,0.0,0.0,0.0,0.0,0.0,0.0,0.0,0.0,-0.0024649983157616715,0.0014076254950259467,0.0008350527806166869,2.7491722135750453e-06,0.0,0.0,0.0,2.7491722135750453e-06,0.0,0.0,0.0,2.7491722135750453e-06,-0.12135729575157166,-0.004207052919387818,-9.799756086679459,7.53975837175367e-06,0.0,0.0,0.0,7.53975837175367e-06,0.0,0.0,0.0,7.53975837175367e-06
1774725869.6018765,22442,1774725869,601105212,imu_link,-0.9512682720022441,0.3083198917507464,0.004553391122550215,0.002604930317291351,0.0,0.0,0.0,0.0,0.0,0.0,0.0,0.0,0.0,-0.0024099506311537704,0.000842156270672304,0.0008006872476449186,2.7491722135750453e-06,0.0,0.0,0.0,2.7491722135750453e-06,0.0,0.0,0.0,2.7491722135750453e-06,-0.11107011973190307,-0.011346294237136841,-9.763108635025024,7.53975837175367e-06,0.0,0.0,0.0,7.53975837175367e-06,0.0,0.0,0.0,7.53975837175367e-06
1774725869.6058621,22443,1774725869,605105212,imu_link,-0.9512702005274499,0.308313159642641,0.004611335787381512,0.0025955272860162014,0.0,0.0,0.0,0.0,0.0,0.0,0.0,0.0,0.0,-0.00269923895467183,0.0010424328023386532,-0.0005600063437949007,2.7491722135750453e-06,0.0,0.0,0.0,2.7491722135750453e-06,0.0,0.0,0.0,2.7491722135750453e-06,-0.12634888068389893,-0.016337879169464112,-9.767962926855088,7.53975837175367e-06,0.0,0.0,0.0,7.53975837175367e-06,0.0,0.0,0.0,7.53975837175367e-06
1774725869.6098804,22444,1774725869,609105212,imu_link,-0.9512739568614634,0.30830055899769576,0.004698559624787159,0.0025588779367513217,0.0,0.0,0.0,0.0,0.0,0.0,0.0,0.0,0.0,-0.002344832396761862,0.0028247106745977026,0.0007709468371909353,2.7491722135750453e-06,0.0,0.0,0.0,2.7491722135750453e-06,0.0,0.0,0.0,2.7491722135750453e-06,-0.11315893621635438,-0.007325567670822144,-9.784359645925521,7.53975837175367e-06,0.0,0.0,0.0,7.53975837175367e-06,0.0,0.0,0.0,7.53975837175367e-06
1774725869.6137037,22445,1774725869,613105212,imu_link,-0.9512783069854888,0.30828623740502686,0.004771568410343143,0.002531920294765552,0.0,0.0,0.0,0.0,0.0,0.0,0.0,0.0,0.0,-0.001642040666861305,0.003984726308643214,-0.00022476350107182976,2.7491722135750453e-06,0.0,0.0,0.0,2.7491722135750453e-06,0.0,0.0,0.0,2.7491722135750453e-06,-0.10769663207626343,-0.017191057733535766,-9.792106899553298,7.53975837175367e-06,0.0,0.0,0.0,7.53975837175367e-06,0.0,0.0,0.0,7.53975837175367e-06
1774725869.6179256,22446,1774725869,617105212,imu_link,-0.951280120052595,0.3082804664147077,0.004796614009426997,0.0025059357325293765,0.0,0.0,0.0,0.0,0.0,0.0,0.0,0.0,0.0,-0.002241631078091437,0.003977622818587597,-0.0001736951671584757,2.7491722135750453e-06,0.0,0.0,0.0,2.7491722135750453e-06,0.0,0.0,0.0,2.7491722135750453e-06,-0.10331305945396423,-0.006599875558853149,-9.793362150774001,7.53975837175367e-06,0.0,0.0,0.0,7.53975837175367e-06,0.0,0.0,0.0,7.53975837175367e-06
1774725869.6218686,22447,1774725869,621105212,imu_link,-0.951280480212255,0.3082791456919166,0.004823444007416933,0.002480057763558073,0.0,0.0,0.0,0.0,0.0,0.0,0.0,0.0,0.0,-0.0022351035466889784,0.003492857618846172,0.0005062327495409553,2.7491722135750453e-06,0.0,0.0,0.0,2.7491722135750453e-06,0.0,0.0,0.0,2.7491722135750453e-06,-0.11669913692474367,0.003412714256286621,-9.783947766618729,7.53975837175367e-06,0.0,0.0,0.0,7.53975837175367e-06,0.0,0.0,0.0,7.53975837175367e-06
1774725869.6259048,22448,1774725869,625105212,imu_link,-0.9512811894455289,0.3082766660774405,0.004850006619484966,0.002464385332944589,0.0,0.0,0.0,0.0,0.0,0.0,0.0,0.0,0.0,-0.001306902543893354,0.004069462043827539,0.0006381796409917266,2.7491722135750453e-06,0.0,0.0,0.0,2.7491722135750453e-06,0.0,0.0,0.0,2.7491722135750453e-06,-0.11549291895484924,-0.007158854618072509,-9.794990054700852,7.53975837175367e-06,0.0,0.0,0.0,7.53975837175367e-06,0.0,0.0,0.0,7.53975837175367e-06
1774725869.62987,22449,1774725869,629105212,imu_link,-0.9512829731618302,0.30827045245755685,0.0049051478258283045,0.0024438982811798636,0.0,0.0,0.0,0.0,0.0,0.0,0.0,0.0,0.0,-0.0025181959513624584,0.0035885540217330206,0.0008391193977738338,2.7491722135750453e-06,0.0,0.0,0.0,2.7491722135750453e-06,0.0,0.0,0.0,2.7491722135750453e-06,-0.12180840165901184,-0.008610238842010499,-9.782025663187026,7.53975837175367e-06,0.0,0.0,0.0,7.53975837175367e-06,0.0,0.0,0.0,7.53975837175367e-06
1774725869.633889,22450,1774725869,633105212,imu_link,-0.9512849645751854,0.30826384547787156,0.004947429755978317,0.002416750544220888,0.0,0.0,0.0,0.0,0.0,0.0,0.0,0.0,0.0,-0.00268396732371688,0.0033876840781209934,0.0005235987755982988,2.7491722135750453e-06,0.0,0.0,0.0,2.7491722135750453e-06,0.0,0.0,0.0,2.7491722135750453e-06,-0.10999138821411134,-0.005511337390899658,-9.803678746744156,7.53975837175367e-06,0.0,0.0,0.0,7.53975837175367e-06,0.0,0.0,0.0,7.53975837175367e-06
1774725869.637879,22451,1774725869,637105212,imu_link,-0.9512879629593428,0.3082539296587854,0.005005656071372177,0.00238113121761753,0.0,0.0,0.0,0.0,0.0,0.0,0.0,0.0,0.0,-0.002452484305024872,0.003639709622108975,0.0006896319473405194,2.7491722135750453e-06,0.0,0.0,0.0,2.7491722135750453e-06,0.0,0.0,0.0,2.7491722135750453e-06,-0.10625505450248718,-0.0035009741077423094,-9.791253720989229,7.53975837175367e-06,0.0,0.0,0.0,7.53975837175367e-06,0.0,0.0,0.0,7.53975837175367e-06
1774725869.6418774,22452,1774725869,641105212,imu_link,-0.9512917576812611,0.3082412810301777,0.005070610071521795,0.0023650264426543547,0.0,0.0,0.0,0.0,0.0,0.0,0.0,0.0,0.0,-0.002852827928847331,0.00340428215930746,-0.0001568527398767304,2.7491722135750453e-06,0.0,0.0,0.0,2.7491722135750453e-06,0.0,0.0,0.0,2.7491722135750453e-06,-0.11363946207427977,-0.022094382814407346,-9.797500557142259,7.53975837175367e-06,0.0,0.0,0.0,7.53975837175367e-06,0.0,0.0,0.0,7.53975837175367e-06
1774725869.6458793,22453,1774725869,645105212,imu_link,-0.9512937962310036,0.3082345394421411,0.005105242314494128,0.0023491377582818967,0.0,0.0,0.0,0.0,0.0,0.0,0.0,0.0,0.0,-0.004011778912049126,0.002624556315978993,-7.27976831006835e-05,2.7491722135750453e-06,0.0,0.0,0.0,2.7491722135750453e-06,0.0,0.0,0.0,2.7491722135750453e-06,-0.11117799288368226,-0.015298374252319336,-9.80938621713829,7.53975837175367e-06,0.0,0.0,0.0,7.53975837175367e-06,0.0,0.0,0.0,7.53975837175367e-06
1774725869.6499133,22454,1774725869,649105212,imu_link,-0.9512900078327594,0.3082475699444458,0.005021960864332371,0.002352983206344794,0.0,0.0,0.0,0.0,0.0,0.0,0.0,0.0,0.0,-0.0023853065821156107,0.003706067040269799,0.0010549293597829326,2.7491722135750453e-06,0.0,0.0,0.0,2.7491722135750453e-06,0.0,0.0,0.0,2.7491722135750453e-06,-0.08912283666992188,-0.00821797283554077,-9.805826403129577,7.53975837175367e-06,0.0,0.0,0.0,7.53975837175367e-06,0.0,0.0,0.0,7.53975837175367e-06
1774725869.653893,22455,1774725869,653105212,imu_link,-0.951286442478293,0.30825938961594795,0.004965072507496068,0.0023666697259405825,0.0,0.0,0.0,0.0,0.0,0.0,0.0,0.0,0.0,-0.0036318032805974405,0.0031934114790815047,0.0005584530007606256,2.7491722135750453e-06,0.0,0.0,0.0,2.7491722135750453e-06,0.0,0.0,0.0,2.7491722135750453e-06,-0.11165851874160766,-0.012827098411560057,-9.812455698638916,7.53975837175367e-06,0.0,0.0,0.0,7.53975837175367e-06,0.0,0.0,0.0,7.53975837175367e-06
1774725869.6579325,22456,1774725869,657105212,imu_link,-0.9512819208019748,0.30827459118923817,0.004884089257708698,0.0023726050106232122,0.0,0.0,0.0,0.0,0.0,0.0,0.0,0.0,0.0,-0.00407220221075317,0.00213930242404701,0.0005076464662350707,2.7491722135750453e-06,0.0,0.0,0.0,2.7491722135750453e-06,0.0,0.0,0.0,2.7491722135750453e-06,-0.09804688831710816,-0.004363959321975708,-9.800932884698868,7.53975837175367e-06,0.0,0.0,0.0,7.53975837175367e-06,0.0,0.0,0.0,7.53975837175367e-06
1774725869.6616807,22457,1774725869,661105212,imu_link,-0.9512770794364606,0.30829082786484163,0.0048009622690124674,0.0023736795360834065,0.0,0.0,0.0,0.0,0.0,0.0,0.0,0.0,0.0,-0.003777189207288568,0.002675624649892347,0.0005079955320854696,2.7491722135750453e-06,0.0,0.0,0.0,2.7491722135750453e-06,0.0,0.0,0.0,2.7491722135750453e-06,-0.09754674915885925,0.0019319100818634032,-9.780025106554032,7.53975837175367e-06,0.0,0.0,0.0,7.53975837175367e-06,0.0,0.0,0.0,7.53975837175367e-06
1774725869.66593,22458,1774725869,665105212,imu_link,-0.9512725327762441,0.3083058375098802,0.0047316030840155576,0.0023855555026691413,0.0,0.0,0.0,0.0,0.0,0.0,0.0,0.0,0.0,-0.0020799088696016425,0.0028953266961333933,0.0004384092548084556,2.7491722135750453e-06,0.0,0.0,0.0,2.7491722135750453e-06,0.0,0.0,0.0,2.7491722135750453e-06,-0.10722591286849975,-0.0044620258235931395,-9.796716025129317,7.53975837175367e-06,0.0,0.0,0.0,7.53975837175367e-06,0.0,0.0,0.0,7.53975837175367e-06
1774725869.6699069,22459,1774725869,669105212,imu_link,-0.951269081538524,0.308317107204795,0.004686656482606792,0.002393985115652805,0.0,0.0,0.0,0.0,0.0,0.0,0.0,0.0,0.0,-0.00343794956057843,0.0018317754098456087,-4.223696789826277e-05,2.7491722135750453e-06,0.0,0.0,0.0,2.7491722135750453e-06,0.0,0.0,0.0,2.7491722135750453e-06,-0.11278628351020814,-0.006580262258529664,-9.783231881156922,7.53975837175367e-06,0.0,0.0,0.0,7.53975837175367e-06,0.0,0.0,0.0,7.53975837175367e-06
1774725869.673957,22460,1774725869,673105212,imu_link,-0.9512650737254745,0.3083299334224716,0.004646418416475182,0.0024129777579905637,0.0,0.0,0.0,0.0,0.0,0.0,0.0,0.0,0.0,-0.0031030732369982782,0.0019662879352968115,0.0008872206719587974,2.7491722135750453e-06,0.0,0.0,0.0,2.7491722135750453e-06,0.0,0.0,0.0,2.7491722135750453e-06,-0.11888601991081238,-0.014700168592453001,-9.810641468358995,7.53975837175367e-06,0.0,0.0,0.0,7.53975837175367e-06,0.0,0.0,0.0,7.53975837175367e-06
1774725869.677887,22461,1774725869,677105212,imu_link,-0.9512602407351943,0.3083458871323782,0.0045705969007597425,0.002424444047080685,0.0,0.0,0.0,0.0,0.0,0.0,0.0,0.0,0.0,-0.0033960791118230866,0.0009326690456807298,7.227408432508518e-05,2.7491722135750453e-06,0.0,0.0,0.0,2.7491722135750453e-06,0.0,0.0,0.0,2.7491722135750453e-06,-0.10289137349700928,-0.003893240114212036,-9.796206079320907,7.53975837175367e-06,0.0,0.0,0.0,7.53975837175367e-06,0.0,0.0,0.0,7.53975837175367e-06
1774725869.681676,22462,1774725869,681105212,imu_link,-0.95125467006632,0.30836403692571424,0.0044884454995985125,0.002455048857068848,0.0,0.0,0.0,0.0,0.0,0.0,0.0,0.0,0.0,-0.0024691521993814177,0.0017911965047367406,0.0006198711371383061,2.7491722135750453e-06,0.0,0.0,0.0,2.7491722135750453e-06,0.0,0.0,0.0,2.7491722135750453e-06,-0.10854981064033509,-0.016847824977874754,-9.809925582897186,7.53975837175367e-06,0.0,0.0,0.0,7.53975837175367e-06,0.0,0.0,0.0,7.53975837175367e-06
1774725869.6859736,22463,1774725869,685105212,imu_link,-0.9512487833508552,0.3083834851117432,0.0043791473383633294,0.002490251481653154,0.0,0.0,0.0,0.0,0.0,0.0,0.0,0.0,0.0,-0.0036248045102969433,0.0022292392404022776,-2.452187599052033e-05,2.7491722135750453e-06,0.0,0.0,0.0,2.7491722135750453e-06,0.0,0.0,0.0,2.7491722135750453e-06,-0.0958796186313629,-0.023486927137374877,-9.822919394361497,7.53975837175367e-06,0.0,0.0,0.0,7.53975837175367e-06,0.0,0.0,0.0,7.53975837175367e-06
1774725869.689916,22464,1774725869,689105212,imu_link,-0.9512397264055464,0.30841307827923226,0.004230561927047886,0.0025413382322325533,0.0,0.0,0.0,0.0,0.0,0.0,0.0,0.0,0.0,-0.0027726475030107117,0.002302944494713998,0.0009701587180135681,2.7491722135750453e-06,0.0,0.0,0.0,2.7491722135750453e-06,0.0,0.0,0.0,2.7491722135750453e-06,-0.09609536493492127,-0.021025457946777345,-9.800452358840943,7.53975837175367e-06,0.0,0.0,0.0,7.53975837175367e-06,0.0,0.0,0.0,7.53975837175367e-06
1774725869.6939733,22465,1774725869,693105212,imu_link,-0.9512311359035156,0.3084410790745298,0.004091578680451192,0.002585693514052626,0.0,0.0,0.0,0.0,0.0,0.0,0.0,0.0,0.0,-0.0030144454175820064,0.0029850017131008624,0.0002246587813167101,2.7491722135750453e-06,0.0,0.0,0.0,2.7491722135750453e-06,0.0,0.0,0.0,2.7491722135750453e-06,-0.10088101021385192,-0.015327794202804565,-9.815927252796172,7.53975837175367e-06,0.0,0.0,0.0,7.53975837175367e-06,0.0,0.0,0.0,7.53975837175367e-06
1774725869.6979167,22466,1774725869,697105212,imu_link,-0.951227613289456,0.3084524298115516,0.004038356567408857,0.0026111176207800056,0.0,0.0,0.0,0.0,0.0,0.0,0.0,0.0,0.0,-0.002547360403163284,0.0026760609822053453,-0.000507541746479951,2.7491722135750453e-06,0.0,0.0,0.0,2.7491722135750453e-06,0.0,0.0,0.0,2.7491722135750453e-06,-0.10706900646591187,-0.025252124166488647,-9.81923209390068,7.53975837175367e-06,0.0,0.0,0.0,7.53975837175367e-06,0.0,0.0,0.0,7.53975837175367e-06
1774725869.7019212,22467,1774725869,701105212,imu_link,-0.9512256073391258,0.3084589860162653,0.004013130934959076,0.0026062747797870123,0.0,0.0,0.0,0.0,0.0,0.0,0.0,0.0,0.0,-0.001201641736705576,0.003190531685815714,-0.00024373523004100813,2.7491722135750453e-06,0.0,0.0,0.0,2.7491722135750453e-06,0.0,0.0,0.0,2.7491722135750453e-06,-0.10101830331611633,-0.006599875558853149,-9.809092017633438,7.53975837175367e-06,0.0,0.0,0.0,7.53975837175367e-06,0.0,0.0,0.0,7.53975837175367e-06
1774725869.7059019,22468,1774725869,705105212,imu_link,-0.9512242120475164,0.30846336748507025,0.0039994344194547796,0.0026179875241170263,0.0,0.0,0.0,0.0,0.0,0.0,0.0,0.0,0.0,-0.0015038629499809142,0.0036020454168509373,0.00022259929279935678,2.7491722135750453e-06,0.0,0.0,0.0,2.7491722135750453e-06,0.0,0.0,0.0,2.7491722135750453e-06,-0.10380339196205139,-0.02730171405029297,-9.801050564500809,7.53975837175367e-06,0.0,0.0,0.0,7.53975837175367e-06,0.0,0.0,0.0,7.53975837175367e-06
1774725869.7099466,22469,1774725869,709105212,imu_link,-0.9512257578662823,0.30845821614195257,0.004034050517224451,0.0026101537629476946,0.0,0.0,0.0,0.0,0.0,0.0,0.0,0.0,0.0,-0.0025500307569188353,0.0030417947269607572,-0.0002909987461850146,2.7491722135750453e-06,0.0,0.0,0.0,2.7491722135750453e-06,0.0,0.0,0.0,2.7491722135750453e-06,-0.10427411116981507,-0.02461469190597534,-9.800521005392074,7.53975837175367e-06,0.0,0.0,0.0,7.53975837175367e-06,0.0,0.0,0.0,7.53975837175367e-06
1774725869.7138712,22470,1774725869,713105212,imu_link,-0.9512268042257499,0.3084547336293893,0.0040704519671159595,0.0025837269346780357,0.0,0.0,0.0,0.0,0.0,0.0,0.0,0.0,0.0,-0.0014470873894135384,0.0029359405078273016,0.0004537506989334858,2.7491722135750453e-06,0.0,0.0,0.0,2.7491722135750453e-06,0.0,0.0,0.0,2.7491722135750453e-06,-0.10153805577468872,-0.004932745031356811,-9.796882738182068,7.53975837175367e-06,0.0,0.0,0.0,7.53975837175367e-06,0.0,0.0,0.0,7.53975837175367e-06
1774725869.7179387,22471,1774725869,717105212,imu_link,-0.9512244937910979,0.30846200164989984,0.004051278399170927,0.0025967466836741646,0.0,0.0,0.0,0.0,0.0,0.0,0.0,0.0,0.0,-0.0016604713437623653,0.002600261332791232,0.0005034053161527245,2.7491722135750453e-06,0.0,0.0,0.0,2.7491722135750453e-06,0.0,0.0,0.0,2.7491722135750453e-06,-0.10719649291801453,-0.022731815074920655,-9.789949436517716,7.53975837175367e-06,0.0,0.0,0.0,7.53975837175367e-06,0.0,0.0,0.0,7.53975837175367e-06
1774725869.721852,22472,1774725869,721105212,imu_link,-0.9512212121491822,0.3084726221501183,0.004003748573648228,0.0026109267760736914,0.0,0.0,0.0,0.0,0.0,0.0,0.0,0.0,0.0,-0.002075859705737016,0.002445799693989734,0.00042097341558103226,2.7491722135750453e-06,0.0,0.0,0.0,2.7491722135750453e-06,0.0,0.0,0.0,2.7491722135750453e-06,-0.09615420483589172,-0.022378775669097902,-9.798432188907624,7.53975837175367e-06,0.0,0.0,0.0,7.53975837175367e-06,0.0,0.0,0.0,7.53975837175367e-06
1774725869.7259142,22473,1774725869,725105212,imu_link,-0.9512185128526813,0.3084810628256796,0.003983597134659977,0.002627858090030127,0.0,0.0,0.0,0.0,0.0,0.0,0.0,0.0,0.0,-0.0028366836332663838,0.0016887282243521534,6.056292504420323e-06,2.7491722135750453e-06,0.0,0.0,0.0,2.7491722135750453e-06,0.0,0.0,0.0,2.7491722135750453e-06,-0.1131197096157074,-0.023104467781066895,-9.80866052502632,7.53975837175367e-06,0.0,0.0,0.0,7.53975837175367e-06,0.0,0.0,0.0,7.53975837175367e-06
1774725869.7297196,22474,1774725869,729105212,imu_link,-0.9512163602227297,0.30848754855733124,0.0039862906490785045,0.002641574638617362,0.0,0.0,0.0,0.0,0.0,0.0,0.0,0.0,0.0,-0.0037191744629522768,0.0019423420179594494,0.0009382890058721516,2.7491722135750453e-06,0.0,0.0,0.0,2.7491722135750453e-06,0.0,0.0,0.0,2.7491722135750453e-06,-0.1177778684425354,-0.026919254693984984,-9.79959918027687,7.53975837175367e-06,0.0,0.0,0.0,7.53975837175367e-06,0.0,0.0,0.0,7.53975837175367e-06
1774725869.7339613,22475,1774725869,733105212,imu_link,-0.951215027860388,0.3084917728685063,0.003978847928753643,0.0026392449994030918,0.0,0.0,0.0,0.0,0.0,0.0,0.0,0.0,0.0,-0.0033903195252915053,0.00018432422230312112,-0.00027780405703993743,2.7491722135750453e-06,0.0,0.0,0.0,2.7491722135750453e-06,0.0,0.0,0.0,2.7491722135750453e-06,-0.10152824912452697,-0.015592573757171631,-9.805738143278122,7.53975837175367e-06,0.0,0.0,0.0,7.53975837175367e-06,0.0,0.0,0.0,7.53975837175367e-06
1774725869.737887,22476,1774725869,737105212,imu_link,-0.9512141539380615,0.30849420593299465,0.003995396398911328,0.0026448178168881446,0.0,0.0,0.0,0.0,0.0,0.0,0.0,0.0,0.0,-0.0027660327051456535,0.0013060647858523966,0.00017126915949820356,2.7491722135750453e-06,0.0,0.0,0.0,2.7491722135750453e-06,0.0,0.0,0.0,2.7491722135750453e-06,-0.11572827855873109,-0.02241800226974487,-9.795401934007645,7.53975837175367e-06,0.0,0.0,0.0,7.53975837175367e-06,0.0,0.0,0.0,7.53975837175367e-06
1774725869.741715,22477,1774725869,741105212,imu_link,-0.9512136315134412,0.30849546975504955,0.004018914558847103,0.0026496583536900734,0.0,0.0,0.0,0.0,0.0,0.0,0.0,0.0,0.0,-0.0019835841481840753,0.0013156640967383656,-1.3020156219877699e-05,2.7491722135750453e-06,0.0,0.0,0.0,2.7491722135750453e-06,0.0,0.0,0.0,2.7491722135750453e-06,-0.11856240045547485,-0.02082932494354248,-9.786703435314179,7.53975837175367e-06,0.0,0.0,0.0,7.53975837175367e-06,0.0,0.0,0.0,7.53975837175367e-06
1774725869.7459607,22478,1774725869,745105212,imu_link,-0.9512130040995036,0.30849727044404585,0.00402330099415603,0.002658572865600227,0.0,0.0,0.0,0.0,0.0,0.0,0.0,0.0,0.0,-0.001409981689516139,0.0006882531372314439,0.0004329812808347533,2.7491722135750453e-06,0.0,0.0,0.0,2.7491722135750453e-06,0.0,0.0,0.0,2.7491722135750453e-06,-0.10163612227630615,-0.029488597036361697,-9.811239674018859,7.53975837175367e-06,0.0,0.0,0.0,7.53975837175367e-06,0.0,0.0,0.0,7.53975837175367e-06
1774725869.7499208,22479,1774725869,749105212,imu_link,-0.9512129912438378,0.3084971847809687,0.004033547562981794,0.002657586353167369,0.0,0.0,0.0,0.0,0.0,0.0,0.0,0.0,0.0,-0.0031134230394626043,0.0009694954928978101,-1.1274826967883368e-05,2.7491722135750453e-06,0.0,0.0,0.0,2.7491722135750453e-06,0.0,0.0,0.0,2.7491722135750453e-06,-0.10047893755722045,-0.025585550271987917,-9.813485396905898,7.53975837175367e-06,0.0,0.0,0.0,7.53975837175367e-06,0.0,0.0,0.0,7.53975837175367e-06
1774725869.7539136,22480,1774725869,753105212,imu_link,-0.9512129380988997,0.308497180331696,0.004042437752024363,0.0026636098949965564,0.0,0.0,0.0,0.0,0.0,0.0,0.0,0.0,0.0,-0.002215363872848922,0.0011630001470664215,2.040289895581371e-05,2.7491722135750453e-06,0.0,0.0,0.0,2.7491722135750453e-06,0.0,0.0,0.0,2.7491722135750453e-06,-0.10210684148406982,-0.030263322399139408,-9.827636393089294,7.53975837175367e-06,0.0,0.0,0.0,7.53975837175367e-06,0.0,0.0,0.0,7.53975837175367e-06
1774725869.7579052,22481,1774725869,757105212,imu_link,-0.951213930582833,0.3084938311129114,0.004062534834064824,0.002666503545478195,0.0,0.0,0.0,0.0,0.0,0.0,0.0,0.0,0.0,-0.0025077239758504928,0.00021141173229407314,-0.00034604643079291574,2.7491722135750453e-06,0.0,0.0,0.0,2.7491722135750453e-06,0.0,0.0,0.0,2.7491722135750453e-06,-0.09815476146888734,-0.033215124097824095,-9.80662074179268,7.53975837175367e-06,0.0,0.0,0.0,7.53975837175367e-06,0.0,0.0,0.0,7.53975837175367e-06
1774725869.7617674,22482,1774725869,761105212,imu_link,-0.9512149714242764,0.3084903036265082,0.004091540191572323,0.002658948212845544,0.0,0.0,0.0,0.0,0.0,0.0,0.0,0.0,0.0,-0.002392549698511387,0.00046179666678517964,-8.014551925157961e-05,2.7491722135750453e-06,0.0,0.0,0.0,2.7491722135750453e-06,0.0,0.0,0.0,2.7491722135750453e-06,-0.10041029100608825,-0.023810546592712402,-9.805238004119873,7.53975837175367e-06,0.0,0.0,0.0,7.53975837175367e-06,0.0,0.0,0.0,7.53975837175367e-06
1774725869.7657864,22483,1774725869,765105212,imu_link,-0.9512160191326182,0.3084864313524765,0.0041401992342485925,0.002658075847142028,0.0,0.0,0.0,0.0,0.0,0.0,0.0,0.0,0.0,-0.0025011440845704737,0.001459304694177499,7.134905982152818e-05,2.7491722135750453e-06,0.0,0.0,0.0,2.7491722135750453e-06,0.0,0.0,0.0,2.7491722135750453e-06,-0.1192978992176056,-0.025928783027648925,-9.80708165435028,7.53975837175367e-06,0.0,0.0,0.0,7.53975837175367e-06,0.0,0.0,0.0,7.53975837175367e-06
1774725869.769842,22484,1774725869,769105212,imu_link,-0.9512178241534005,0.30848025111911764,0.004193778680033007,0.0026453549363819676,0.0,0.0,0.0,0.0,0.0,0.0,0.0,0.0,0.0,-0.002912692722190737,0.0008554731328650207,-9.49284580159716e-05,2.7491722135750453e-06,0.0,0.0,0.0,2.7491722135750453e-06,0.0,0.0,0.0,2.7491722135750453e-06,-0.11110934633255004,-0.020809711643218997,-9.794205522687912,7.53975837175367e-06,0.0,0.0,0.0,7.53975837175367e-06,0.0,0.0,0.0,7.53975837175367e-06
1774725869.7738729,22485,1774725869,773105212,imu_link,-0.951218977460542,0.30847614563600595,0.004242772327293561,0.0026312307867690657,0.0,0.0,0.0,0.0,0.0,0.0,0.0,0.0,0.0,-0.0019164238785673337,0.0015637277433243194,0.000883991812842608,2.7491722135750453e-06,0.0,0.0,0.0,2.7491722135750453e-06,0.0,0.0,0.0,2.7491722135750453e-06,-0.10970699535942079,-0.01788732989501953,-9.79262665201187,7.53975837175367e-06,0.0,0.0,0.0,7.53975837175367e-06,0.0,0.0,0.0,7.53975837175367e-06
1774725869.777866,22486,1774725869,777105212,imu_link,-0.9512186031726907,0.3084772511433878,0.004247793434501099,0.0026288317085669593,0.0,0.0,0.0,0.0,0.0,0.0,0.0,0.0,0.0,-0.0019846662523203117,0.001333134842550829,-0.0003118903373313867,2.7491722135750453e-06,0.0,0.0,0.0,2.7491722135750453e-06,0.0,0.0,0.0,2.7491722135750453e-06,-0.10701997321510316,-0.016690918575286866,-9.785222631139755,7.53975837175367e-06,0.0,0.0,0.0,7.53975837175367e-06,0.0,0.0,0.0,7.53975837175367e-06
1774725869.7818236,22487,1774725869,781105212,imu_link,-0.9512173795542103,0.3084811716639069,0.004228279801939437,0.002642955315760541,0.0,0.0,0.0,0.0,0.0,0.0,0.0,0.0,0.0,-0.0009108349767382808,0.002377766759746995,-0.00019601792829148314,2.7491722135750453e-06,0.0,0.0,0.0,2.7491722135750453e-06,0.0,0.0,0.0,2.7491722135750453e-06,-0.10338170600509643,-0.027909726360321047,-9.81917325399971,7.53975837175367e-06,0.0,0.0,0.0,7.53975837175367e-06,0.0,0.0,0.0,7.53975837175367e-06
1774725869.785826,22488,1774725869,785105212,imu_link,-0.9512160987713822,0.3084853676783427,0.004211561414024724,0.002640855347318981,0.0,0.0,0.0,0.0,0.0,0.0,0.0,0.0,0.0,-0.0024415759971999074,0.0020774479553563306,-0.00039261181523612444,2.7491722135750453e-06,0.0,0.0,0.0,2.7491722135750453e-06,0.0,0.0,0.0,2.7491722135750453e-06,-0.10236181438827514,-0.014631522041320802,-9.804394632205964,7.53975837175367e-06,0.0,0.0,0.0,7.53975837175367e-06,0.0,0.0,0.0,7.53975837175367e-06
1774725869.7898283,22489,1774725869,789105212,imu_link,-0.9512142766113317,0.30849140027865424,0.004174870767148317,0.002650731780763238,0.0,0.0,0.0,0.0,0.0,0.0,0.0,0.0,0.0,-0.0016148135305301934,0.0027367984401747486,-0.000492776261008079,2.7491722135750453e-06,0.0,0.0,0.0,2.7491722135750453e-06,0.0,0.0,0.0,2.7491722135750453e-06,-0.09644840434074402,-0.023624220239639282,-9.805022257816315,7.53975837175367e-06,0.0,0.0,0.0,7.53975837175367e-06,0.0,0.0,0.0,7.53975837175367e-06
1774725869.7938764,22490,1774725869,793105212,imu_link,-0.9512116638237857,0.3084997173303527,0.0041606561029401785,0.002642717062222398,0.0,0.0,0.0,0.0,0.0,0.0,0.0,0.0,0.0,-0.0022454708024458245,0.002875970994728776,0.0007210129672913775,2.7491722135750453e-06,0.0,0.0,0.0,2.7491722135750453e-06,0.0,0.0,0.0,2.7491722135750453e-06,-0.10994235496330261,-0.0039226600646972655,-9.80921950408554,7.53975837175367e-06,0.0,0.0,0.0,7.53975837175367e-06,0.0,0.0,0.0,7.53975837175367e-06
1774725869.7978048,22491,1774725869,797105212,imu_link,-0.9512108807097898,0.30850184950858106,0.004180912848071427,0.0026437164839460876,0.0,0.0,0.0,0.0,0.0,0.0,0.0,0.0,0.0,-0.001249027425897222,0.0032372017900140428,0.0007361798784912083,2.7491722135750453e-06,0.0,0.0,0.0,2.7491722135750453e-06,0.0,0.0,0.0,2.7491722135750453e-06,-0.11920963936614991,-0.017740230142593384,-9.795078314552308,7.53975837175367e-06,0.0,0.0,0.0,7.53975837175367e-06,0.0,0.0,0.0,7.53975837175367e-06
1774725869.801824,22492,1774725869,801105212,imu_link,-0.9512108543628656,0.30850174527129576,0.004196115510529395,0.0026412726958732068,0.0,0.0,0.0,0.0,0.0,0.0,0.0,0.0,0.0,-0.0017634981295075907,0.002601797222532987,-0.0004761083666515332,2.7491722135750453e-06,0.0,0.0,0.0,2.7491722135750453e-06,0.0,0.0,0.0,2.7491722135750453e-06,-0.1134825556716919,-0.016818405027389526,-9.807895606313705,7.53975837175367e-06,0.0,0.0,0.0,7.53975837175367e-06,0.0,0.0,0.0,7.53975837175367e-06
1774725869.805859,22493,1774725869,805105212,imu_link,-0.9512114897470436,0.30849942161414234,0.00423182262192653,0.0026268449223652954,0.0,0.0,0.0,0.0,0.0,0.0,0.0,0.0,0.0,-0.0021774553214956053,0.002809456496935272,0.000969827105455689,2.7491722135750453e-06,0.0,0.0,0.0,2.7491722135750453e-06,0.0,0.0,0.0,2.7491722135750453e-06,-0.10785353847885133,-0.01629865256881714,-9.793675963579178,7.53975837175367e-06,0.0,0.0,0.0,7.53975837175367e-06,0.0,0.0,0.0,7.53975837175367e-06
1774725869.8098547,22494,1774725869,809105212,imu_link,-0.9512135104235593,0.3084924189847,0.00430478099173657,0.002598822285330758,0.0,0.0,0.0,0.0,0.0,0.0,0.0,0.0,0.0,-0.0014884342393932841,0.0021183933796081176,0.0008342848357458095,2.7491722135750453e-06,0.0,0.0,0.0,2.7491722135750453e-06,0.0,0.0,0.0,2.7491722135750453e-06,-0.11665010367393493,-0.005785923595428467,-9.807934832914354,7.53975837175367e-06,0.0,0.0,0.0,7.53975837175367e-06,0.0,0.0,0.0,7.53975837175367e-06
1774725869.8137095,22495,1774725869,813105212,imu_link,-0.9512155801338013,0.30848543593834693,0.004357618960547072,0.0025820692552496107,0.0,0.0,0.0,0.0,0.0,0.0,0.0,0.0,0.0,-0.0013852329207228594,0.003568587455090206,0.0007702836120751774,2.7491722135750453e-06,0.0,0.0,0.0,2.7491722135750453e-06,0.0,0.0,0.0,2.7491722135750453e-06,-0.10639234760475158,-0.019907499828338625,-9.783212267856598,7.53975837175367e-06,0.0,0.0,0.0,7.53975837175367e-06,0.0,0.0,0.0,7.53975837175367e-06
1774725869.8178744,22496,1774725869,817105212,imu_link,-0.9512178863874197,0.3084777876045344,0.004402945317825837,0.00256928857662264,0.0,0.0,0.0,0.0,0.0,0.0,0.0,0.0,0.0,-0.0010179283796406529,0.0013934708747922726,-1.4922565104551517e-05,2.7491722135750453e-06,0.0,0.0,0.0,2.7491722135750453e-06,0.0,0.0,0.0,2.7491722135750453e-06,-0.10247949419021606,-0.020790098342895507,-9.77737731101036,7.53975837175367e-06,0.0,0.0,0.0,7.53975837175367e-06,0.0,0.0,0.0,7.53975837175367e-06
1774725869.8218389,22497,1774725869,821105212,imu_link,-0.9512193739978888,0.3084725513081742,0.004460116007804126,0.0025485261794662255,0.0,0.0,0.0,0.0,0.0,0.0,0.0,0.0,0.0,-0.0011537499020308514,0.002054863394835524,0.001115754084214935,2.7491722135750453e-06,0.0,0.0,0.0,2.7491722135750453e-06,0.0,0.0,0.0,2.7491722135750453e-06,-0.11365907537460326,-0.009433997455596924,-9.781447070827484,7.53975837175367e-06,0.0,0.0,0.0,7.53975837175367e-06,0.0,0.0,0.0,7.53975837175367e-06
1774725869.82586,22498,1774725869,825105212,imu_link,-0.9512218250041562,0.3084643660545408,0.004512615894581227,0.0025319573694225815,0.0,0.0,0.0,0.0,0.0,0.0,0.0,0.0,0.0,-0.0011605566861136293,0.002242573555887514,-0.0005278399256806451,2.7491722135750453e-06,0.0,0.0,0.0,2.7491722135750453e-06,0.0,0.0,0.0,2.7491722135750453e-06,-0.11296280321311951,-0.013199751117706299,-9.793058144618987,7.53975837175367e-06,0.0,0.0,0.0,7.53975837175367e-06,0.0,0.0,0.0,7.53975837175367e-06
1774725869.8298523,22499,1774725869,829105212,imu_link,-0.9512236483719546,0.3084582557810726,0.004556763432145909,0.002512195348677764,0.0,0.0,0.0,0.0,0.0,0.0,0.0,0.0,0.0,-0.003397353202177042,0.001214592079755374,0.0004879416989800547,2.7491722135750453e-06,0.0,0.0,0.0,2.7491722135750453e-06,0.0,0.0,0.0,2.7491722135750453e-06,-0.10426430451965332,-0.015769093460083008,-9.783575113912582,7.53975837175367e-06,0.0,0.0,0.0,7.53975837175367e-06,0.0,0.0,0.0,7.53975837175367e-06
1774725869.8338363,22500,1774725869,833105212,imu_link,-0.9512255666146092,0.30845180826882035,0.004608005673033366,0.0024838836783629536,0.0,0.0,0.0,0.0,0.0,0.0,0.0,0.0,0.0,-0.0036713349881551125,9.649925434276648e-05,0.00018758798800435055,2.7491722135750453e-06,0.0,0.0,0.0,2.7491722135750453e-06,0.0,0.0,0.0,2.7491722135750453e-06,-0.10757895227432251,-0.005472110790252686,-9.787134927921295,7.53975837175367e-06,0.0,0.0,0.0,7.53975837175367e-06,0.0,0.0,0.0,7.53975837175367e-06
1774725869.8378286,22501,1774725869,837105212,imu_link,-0.9512227098987751,0.30846094987465483,0.004586750326224975,0.00248199450059626,0.0,0.0,0.0,0.0,0.0,0.0,0.0,0.0,0.0,-0.0032744296629590814,0.0006983411403079711,0.0010015222846719062,2.7491722135750453e-06,0.0,0.0,0.0,2.7491722135750453e-06,0.0,0.0,0.0,2.7491722135750453e-06,-0.11063862712478638,-0.005717277044296264,-9.789155097854614,7.53975837175367e-06,0.0,0.0,0.0,7.53975837175367e-06,0.0,0.0,0.0,7.53975837175367e-06
1774725869.8418448,22502,1774725869,841105212,imu_link,-0.9512205588103257,0.30846800225547627,0.004555866865854875,0.002486796772453933,0.0,0.0,0.0,0.0,0.0,0.0,0.0,0.0,0.0,-0.002829789582721006,0.0009228602952845217,-2.8571039855147175e-05,2.7491722135750453e-06,0.0,0.0,0.0,2.7491722135750453e-06,0.0,0.0,0.0,2.7491722135750453e-06,-0.10392107176399232,-0.013709696926116942,-9.794127069486619,7.53975837175367e-06,0.0,0.0,0.0,7.53975837175367e-06,0.0,0.0,0.0,7.53975837175367e-06
1774725869.8456113,22503,1774725869,845105212,imu_link,-0.9512195954061468,0.30847102523363973,0.00455901882683901,0.002474520965772726,0.0,0.0,0.0,0.0,0.0,0.0,0.0,0.0,0.0,-0.003574626294302106,0.0004143586177159738,7.1715578964447e-05,2.7491722135750453e-06,0.0,0.0,0.0,2.7491722135750453e-06,0.0,0.0,0.0,2.7491722135750453e-06,-0.11004042146492005,-0.0037363337116241456,-9.775827860284805,7.53975837175367e-06,0.0,0.0,0.0,7.53975837175367e-06,0.0,0.0,0.0,7.53975837175367e-06
1774725869.8498669,22504,1774725869,849105212,imu_link,-0.951219646177899,0.3084706052023167,0.004580460397533006,0.0024677588730559795,0.0,0.0,0.0,0.0,0.0,0.0,0.0,0.0,0.0,-0.003584312871650675,0.0016121431767746424,0.00047244317522234506,2.7491722135750453e-06,0.0,0.0,0.0,2.7491722135750453e-06,0.0,0.0,0.0,2.7491722135750453e-06,-0.11356100887298584,-0.015210114400863648,-9.79964821352768,7.53975837175367e-06,0.0,0.0,0.0,7.53975837175367e-06,0.0,0.0,0.0,7.53975837175367e-06
1774725869.8538423,22505,1774725869,853105212,imu_link,-0.9512199729736908,0.3084693020071847,0.004609796533880764,0.0024500022546429176,0.0,0.0,0.0,0.0,0.0,0.0,0.0,0.0,0.0,-0.003357193176088653,0.0020992645710062596,-7.513642429835588e-05,2.7491722135750453e-06,0.0,0.0,0.0,2.7491722135750453e-06,0.0,0.0,0.0,2.7491722135750453e-06,-0.1189840864124298,-0.002461469190597534,-9.80178606326294,7.53975837175367e-06,0.0,0.0,0.0,7.53975837175367e-06,0.0,0.0,0.0,7.53975837175367e-06
1774725869.8578484,22506,1774725869,857105212,imu_link,-0.9512226665580407,0.30846018118293134,0.0046752306277681645,0.002428470584706498,0.0,0.0,0.0,0.0,0.0,0.0,0.0,0.0,0.0,-0.0027079132410542423,0.0023714661211472953,0.0005550147021341969,2.7491722135750453e-06,0.0,0.0,0.0,2.7491722135750453e-06,0.0,0.0,0.0,2.7491722135750453e-06,-0.11386501502799988,-0.013346850870132446,-9.796804284980773,7.53975837175367e-06,0.0,0.0,0.0,7.53975837175367e-06,0.0,0.0,0.0,7.53975837175367e-06
1774725869.8617928,22507,1774725869,861105212,imu_link,-0.9512252037964877,0.30845133711845557,0.004744896106502348,0.0024228605213989316,0.0,0.0,0.0,0.0,0.0,0.0,0.0,0.0,0.0,-0.0015404101445176755,0.0022517016278754444,0.0005855579640440976,2.7491722135750453e-06,0.0,0.0,0.0,2.7491722135750453e-06,0.0,0.0,0.0,2.7491722135750453e-06,-0.12414238439750672,-0.022545488721847532,-9.781456877477645,7.53975837175367e-06,0.0,0.0,0.0,7.53975837175367e-06,0.0,0.0,0.0,7.53975837175367e-06
1774725869.8656573,22508,1774725869,865105212,imu_link,-0.9512292353682669,0.3084379801780809,0.004823635531192257,0.002384681242931302,0.0,0.0,0.0,0.0,0.0,0.0,0.0,0.0,0.0,-0.002701560242576983,0.0033552907672039787,0.00012503538761287378,2.7491722135750453e-06,0.0,0.0,0.0,2.7491722135750453e-06,0.0,0.0,0.0,2.7491722135750453e-06,-0.10954028230667114,-0.0037559470119476316,-9.789900403266905,7.53975837175367e-06,0.0,0.0,0.0,7.53975837175367e-06,0.0,0.0,0.0,7.53975837175367e-06
1774725869.869875,22509,1774725869,869105212,imu_link,-0.9512338474536126,0.30842285044237283,0.004901941339777188,0.0023417418090249985,0.0,0.0,0.0,0.0,0.0,0.0,0.0,0.0,0.0,-0.0018488621832226332,0.003345935802413289,0.0010531491239458984,2.7491722135750453e-06,0.0,0.0,0.0,2.7491722135750453e-06,0.0,0.0,0.0,2.7491722135750453e-06,-0.09208444501876832,-0.007855126779556274,-9.788596118795395,7.53975837175367e-06,0.0,0.0,0.0,7.53975837175367e-06,0.0,0.0,0.0,7.53975837175367e-06
1774725869.8737907,22510,1774725869,873105212,imu_link,-0.9512383911460829,0.3084077151176089,0.004991110639896839,0.002300713004243002,0.0,0.0,0.0,0.0,0.0,0.0,0.0,0.0,0.0,-0.0010731505971737533,0.0040717135185626115,0.0008037415738359088,2.7491722135750453e-06,0.0,0.0,0.0,2.7491722135750453e-06,0.0,0.0,0.0,2.7491722135750453e-06,-0.10697093996429442,-0.0021770763359069824,-9.764373692895889,7.53975837175367e-06,0.0,0.0,0.0,7.53975837175367e-06,0.0,0.0,0.0,7.53975837175367e-06
1774725869.8778532,22511,1774725869,877105212,imu_link,-0.9512385214123927,0.3084073645686124,0.004983347261339694,0.002310651657141368,0.0,0.0,0.0,0.0,0.0,0.0,0.0,0.0,0.0,-0.0014310652668802306,0.002903651916665406,0.0001547583447743372,2.7491722135750453e-06,0.0,0.0,0.0,2.7491722135750453e-06,0.0,0.0,0.0,2.7491722135750453e-06,-0.105078256483078,-0.026144529331207277,-9.792881624916077,7.53975837175367e-06,0.0,0.0,0.0,7.53975837175367e-06,0.0,0.0,0.0,7.53975837175367e-06
1774725869.8818612,22512,1774725869,881105212,imu_link,-0.9512387663735334,0.30840682609784237,0.0049692695803355775,0.002311995729173123,0.0,0.0,0.0,0.0,0.0,0.0,0.0,0.0,0.0,-0.0018380411418602684,0.003648593348001626,5.733406592801373e-05,2.7491722135750453e-06,0.0,0.0,0.0,2.7491722135750453e-06,0.0,0.0,0.0,2.7491722135750453e-06,-0.09823321467018127,-0.02153540375518799,-9.787791973482133,7.53975837175367e-06,0.0,0.0,0.0,7.53975837175367e-06,0.0,0.0,0.0,7.53975837175367e-06
1774725869.8858368,22513,1774725869,885105212,imu_link,-0.9512390988113151,0.3084059554879558,0.004958107953057213,0.0023153137419946864,0.0,0.0,0.0,0.0,0.0,0.0,0.0,0.0,0.0,-0.0010266026660230645,0.0022270052189597243,-0.0003621034599112636,2.7491722135750453e-06,0.0,0.0,0.0,2.7491722135750453e-06,0.0,0.0,0.0,2.7491722135750453e-06,-0.10043971095657347,-0.0196525269241333,-9.798118376102448,7.53975837175367e-06,0.0,0.0,0.0,7.53975837175367e-06,0.0,0.0,0.0,7.53975837175367e-06
1774725869.8898158,22514,1774725869,889105212,imu_link,-0.9512389631528698,0.3084067238421208,0.00493705314499554,0.0023136929499513246,0.0,0.0,0.0,0.0,0.0,0.0,0.0,0.0,0.0,-0.00043764130993757816,0.0036144198012475768,0.00022038272464932398,2.7491722135750453e-06,0.0,0.0,0.0,2.7491722135750453e-06,0.0,0.0,0.0,2.7491722135750453e-06,-0.09480088711357117,-0.015759286809921263,-9.806051956083298,7.53975837175367e-06,0.0,0.0,0.0,7.53975837175367e-06,0.0,0.0,0.0,7.53975837175367e-06
1774725869.8938706,22515,1774725869,893158573,imu_link,-0.9512390409606244,0.30840672756675835,0.004920754376670673,0.002315927511697747,0.0,0.0,0.0,0.0,0.0,0.0,0.0,0.0,0.0,-0.0027359083222562313,0.00338883599542731,-0.00010730284241261137,2.7491722135750453e-06,0.0,0.0,0.0,2.7491722135750453e-06,0.0,0.0,0.0,2.7491722135750453e-06,-0.09916484643554686,-0.022202255966186524,-9.813926696163177,7.53975837175367e-06,0.0,0.0,0.0,7.53975837175367e-06,0.0,0.0,0.0,7.53975837175367e-06
1774725869.8978305,22516,1774725869,897158573,imu_link,-0.9512449576101205,0.3083873968699945,0.005006744168357621,0.0022752111772781683,0.0,0.0,0.0,0.0,0.0,0.0,0.0,0.0,0.0,-0.0016323366362202166,0.0031172453105244727,0.00035484289022296714,2.7491722135750453e-06,0.0,0.0,0.0,2.7491722135750453e-06,0.0,0.0,0.0,2.7491722135750453e-06,-0.09247671102523802,-0.01084615507888794,-9.814652388275146,7.53975837175367e-06,0.0,0.0,0.0,7.53975837175367e-06,0.0,0.0,0.0,7.53975837175367e-06
1774725869.9018302,22517,1774725869,901158573,imu_link,-0.9512510593187314,0.30836739812127956,0.005091181352690289,0.0022471745231260128,0.0,0.0,0.0,0.0,0.0,0.0,0.0,0.0,0.0,-0.002644313443111569,0.002490549936010868,-7.592182246175333e-05,2.7491722135750453e-06,0.0,0.0,0.0,2.7491722135750453e-06,0.0,0.0,0.0,2.7491722135750453e-06,-0.09618362478637696,-0.02296717467880249,-9.821938729345323,7.53975837175367e-06,0.0,0.0,0.0,7.53975837175367e-06,0.0,0.0,0.0,7.53975837175367e-06
1774725869.9058492,22518,1774725869,905158573,imu_link,-0.9512526231181483,0.30836211764613675,0.005119238266441,0.0022460657166423824,0.0,0.0,0.0,0.0,0.0,0.0,0.0,0.0,0.0,-0.0019365649781353483,0.002227301924932564,0.0017155190283702664,2.7491722135750453e-06,0.0,0.0,0.0,2.7491722135750453e-06,0.0,0.0,0.0,2.7491722135750453e-06,-0.10164592892646789,-0.02888058472633362,-9.815584020040513,7.53975837175367e-06,0.0,0.0,0.0,7.53975837175367e-06,0.0,0.0,0.0,7.53975837175367e-06
1774725869.9098125,22519,1774725869,909158573,imu_link,-0.9512516829427864,0.3083654306680605,0.005089018023509294,0.002258044059457408,0.0,0.0,0.0,0.0,0.0,0.0,0.0,0.0,0.0,-0.0031055516045361106,0.001984997864878191,0.00014001031259498512,2.7491722135750453e-06,0.0,0.0,0.0,2.7491722135750453e-06,0.0,0.0,0.0,2.7491722135750453e-06,-0.10208722818374634,-0.02434010570144653,-9.831814026058197,7.53975837175367e-06,0.0,0.0,0.0,7.53975837175367e-06,0.0,0.0,0.0,7.53975837175367e-06
1774725869.9138634,22520,1774725869,913158573,imu_link,-0.9512504108272819,0.30836960114741696,0.005070951092578791,0.0022650483718460426,0.0,0.0,0.0,0.0,0.0,0.0,0.0,0.0,0.0,-0.0016869130819300794,0.0018835418754597605,0.0006184050605666309,2.7491722135750453e-06,0.0,0.0,0.0,2.7491722135750453e-06,0.0,0.0,0.0,2.7491722135750453e-06,-0.11009926136589049,-0.014759008493423462,-9.832745657823564,7.53975837175367e-06,0.0,0.0,0.0,7.53975837175367e-06,0.0,0.0,0.0,7.53975837175367e-06
1774725869.9178421,22521,1774725869,917158573,imu_link,-0.9512424551451163,0.30839603102746727,0.004922718132287779,0.0023337570968624175,0.0,0.0,0.0,0.0,0.0,0.0,0.0,0.0,0.0,-0.0019572296764789614,0.00041535345538961055,0.0004668581216159632,2.7491722135750453e-06,0.0,0.0,0.0,2.7491722135750453e-06,0.0,0.0,0.0,2.7491722135750453e-06,-0.10122424296951293,-0.03441153541755676,-9.8150740742321,7.53975837175367e-06,0.0,0.0,0.0,7.53975837175367e-06,0.0,0.0,0.0,7.53975837175367e-06
1774725869.9218717,22522,1774725869,921158573,imu_link,-0.9512352721052919,0.30842021288681215,0.004771581915272834,0.002379367909879647,0.0,0.0,0.0,0.0,0.0,0.0,0.0,0.0,0.0,-0.0024129351441746806,0.0007126528401743247,-0.0005445950864997907,2.7491722135750453e-06,0.0,0.0,0.0,2.7491722135750453e-06,0.0,0.0,0.0,2.7491722135750453e-06,-0.08837753125762939,-0.018701281858444215,-9.822026989196777,7.53975837175367e-06,0.0,0.0,0.0,7.53975837175367e-06,0.0,0.0,0.0,7.53975837175367e-06
1774725869.9258249,22523,1774725869,925158573,imu_link,-0.9512285124663515,0.3084422464782908,0.004669622490305443,0.002427402783894201,0.0,0.0,0.0,0.0,0.0,0.0,0.0,0.0,0.0,-0.0027044749424278134,0.00020629791758572976,0.0006673091862075119,2.7491722135750453e-06,0.0,0.0,0.0,2.7491722135750453e-06,0.0,0.0,0.0,2.7491722135750453e-06,-0.1102561677684784,-0.024967731311798098,-9.800128739385604,7.53975837175367e-06,0.0,0.0,0.0,7.53975837175367e-06,0.0,0.0,0.0,7.53975837175367e-06
1774725869.9298582,22524,1774725869,929158573,imu_link,-0.9512234783436858,0.308458731930047,0.00458835570625995,0.0024600682429229306,0.0,0.0,0.0,0.0,0.0,0.0,0.0,0.0,0.0,-0.0017686992106785335,0.0016500168215429192,0.0004188790204786391,2.7491722135750453e-06,0.0,0.0,0.0,2.7491722135750453e-06,0.0,0.0,0.0,2.7491722135750453e-06,-0.10368571216011048,-0.022623941923141478,-9.789057031352996,7.53975837175367e-06,0.0,0.0,0.0,7.53975837175367e-06,0.0,0.0,0.0,7.53975837175367e-06
1774725869.933614,22525,1774725869,933158573,imu_link,-0.9512186082441727,0.30847480450967407,0.004501352320539637,0.002488401097900813,0.0,0.0,0.0,0.0,0.0,0.0,0.0,0.0,0.0,-0.0023226318086764937,0.0020932606383793993,0.0004042531613469266,2.7491722135750453e-06,0.0,0.0,0.0,2.7491722135750453e-06,0.0,0.0,0.0,2.7491722135750453e-06,-0.09553638587570192,-0.023800739942550657,-9.79424474928856,7.53975837175367e-06,0.0,0.0,0.0,7.53975837175367e-06,0.0,0.0,0.0,7.53975837175367e-06
1774725869.9378684,22526,1774725869,937158573,imu_link,-0.9512148598115999,0.3084869334750433,0.004451016875842527,0.002508146234484962,0.0,0.0,0.0,0.0,0.0,0.0,0.0,0.0,0.0,-0.0011826874610289175,0.0015385600955105613,0.0010152405725925816,2.7491722135750453e-06,0.0,0.0,0.0,2.7491722135750453e-06,0.0,0.0,0.0,2.7491722135750453e-06,-0.10314634640121459,-0.020437058937072754,-9.816005705997465,7.53975837175367e-06,0.0,0.0,0.0,7.53975837175367e-06,0.0,0.0,0.0,7.53975837175367e-06
1774725869.9418087,22527,1774725869,941158573,imu_link,-0.9512113942075533,0.3084983824840249,0.004385005873469064,0.002530465955608964,0.0,0.0,0.0,0.0,0.0,0.0,0.0,0.0,0.0,-0.0018025411448747035,0.001848286224569475,0.0008344593686710089,2.7491722135750453e-06,0.0,0.0,0.0,2.7491722135750453e-06,0.0,0.0,0.0,2.7491722135750453e-06,-0.08876979726409912,-0.0297631832408905,-9.803482613740922,7.53975837175367e-06,0.0,0.0,0.0,7.53975837175367e-06,0.0,0.0,0.0,7.53975837175367e-06
1774725869.9458244,22528,1774725869,945158573,imu_link,-0.9512086753894278,0.30850711053614654,0.0043462888937856655,0.0025550705234292093,0.0,0.0,0.0,0.0,0.0,0.0,0.0,0.0,0.0,-0.0007204021020531795,0.001762416025371354,0.00030063296365602326,2.7491722135750453e-06,0.0,0.0,0.0,2.7491722135750453e-06,0.0,0.0,0.0,2.7491722135750453e-06,-0.10605892149925232,-0.027380167251586915,-9.807032621099472,7.53975837175367e-06,0.0,0.0,0.0,7.53975837175367e-06,0.0,0.0,0.0,7.53975837175367e-06
1774725869.949859,22529,1774725869,949158573,imu_link,-0.9512064458300709,0.30851413324274474,0.0043277101708681055,0.0025686427310097587,0.0,0.0,0.0,0.0,0.0,0.0,0.0,0.0,0.0,-0.0018000627773368718,0.0013670989497946383,0.00021916099417292796,2.7491722135750453e-06,0.0,0.0,0.0,2.7491722135750453e-06,0.0,0.0,0.0,2.7491722135750453e-06,-0.11336487586975098,-0.01918180771636963,-9.796215885971069,7.53975837175367e-06,0.0,0.0,0.0,7.53975837175367e-06,0.0,0.0,0.0,7.53975837175367e-06
1774725869.9538636,22530,1774725869,953158573,imu_link,-0.9512045760832505,0.3085203066200826,0.00429455440221495,0.002575197821563343,0.0,0.0,0.0,0.0,0.0,0.0,0.0,0.0,0.0,-0.0013099045102067841,0.0022898719786165604,-0.00019533724988320537,2.7491722135750453e-06,0.0,0.0,0.0,2.7491722135750453e-06,0.0,0.0,0.0,2.7491722135750453e-06,-0.10002783164978028,-0.0169949247303009,-9.809190084135055,7.53975837175367e-06,0.0,0.0,0.0,7.53975837175367e-06,0.0,0.0,0.0,7.53975837175367e-06
1774725869.95783,22531,1774725869,957158573,imu_link,-0.9512058422367364,0.3085160127101521,0.004324739681547081,0.002571424277908136,0.0,0.0,0.0,0.0,0.0,0.0,0.0,0.0,0.0,-0.0016178678567211836,0.0014362488947586539,6.944665093685437e-05,2.7491722135750453e-06,0.0,0.0,0.0,2.7491722135750453e-06,0.0,0.0,0.0,2.7491722135750453e-06,-0.1041466247177124,-0.025154057664871218,-9.816770624710083,7.53975837175367e-06,0.0,0.0,0.0,7.53975837175367e-06,0.0,0.0,0.0,7.53975837175367e-06
1774725869.9618022,22532,1774725869,961158573,imu_link,-0.9512076583014113,0.3085098828814589,0.0043679434161520685,0.0025620350363875295,0.0,0.0,0.0,0.0,0.0,0.0,0.0,0.0,0.0,-0.0017739177451419968,-7.806857744170637e-05,-0.000979129710368819,2.7491722135750453e-06,0.0,0.0,0.0,2.7491722135750453e-06,0.0,0.0,0.0,2.7491722135750453e-06,-0.11204097809791565,-0.016112326215744016,-9.792695298563004,7.53975837175367e-06,0.0,0.0,0.0,7.53975837175367e-06,0.0,0.0,0.0,7.53975837175367e-06
1774725869.9658625,22533,1774725869,965158573,imu_link,-0.9512092023709026,0.3085047446334286,0.004402038966784947,0.002549101117923125,0.0,0.0,0.0,0.0,0.0,0.0,0.0,0.0,0.0,-0.0019901814927566143,0.00041465532368881283,0.0005831494096763453,2.7491722135750453e-06,0.0,0.0,0.0,2.7491722135750453e-06,0.0,0.0,0.0,2.7491722135750453e-06,-0.09695835014915466,-0.020878358194351194,-9.780083946455003,7.53975837175367e-06,0.0,0.0,0.0,7.53975837175367e-06,0.0,0.0,0.0,7.53975837175367e-06
1774725869.9698694,22534,1774725869,969158573,imu_link,-0.9512118267608148,0.3084959309934072,0.004459676998048957,0.002536231838266901,0.0,0.0,0.0,0.0,0.0,0.0,0.0,0.0,0.0,-0.0016991303866940395,0.0010866070857066298,-0.00029633945369611725,2.7491722135750453e-06,0.0,0.0,0.0,2.7491722135750453e-06,0.0,0.0,0.0,2.7491722135750453e-06,-0.11222730445098876,-0.018338435802459717,-9.778024549921035,7.53975837175367e-06,0.0,0.0,0.0,7.53975837175367e-06,0.0,0.0,0.0,7.53975837175367e-06
1774725869.9738736,22535,1774725869,973158573,imu_link,-0.951214223376412,0.30848794281529096,0.0045069008595252,0.002525515519968852,0.0,0.0,0.0,0.0,0.0,0.0,0.0,0.0,0.0,-0.0022506893369092875,0.0013956350830647455,5.4105206811824215e-05,2.7491722135750453e-06,0.0,0.0,0.0,2.7491722135750453e-06,0.0,0.0,0.0,2.7491722135750453e-06,-0.10607853479957581,-0.023163307682037355,-9.792950271467209,7.53975837175367e-06,0.0,0.0,0.0,7.53975837175367e-06,0.0,0.0,0.0,7.53975837175367e-06
1774725869.977819,22536,1774725869,977158573,imu_link,-0.9512185311402185,0.308473721268475,0.004579516869785659,0.0025094476411535436,0.0,0.0,0.0,0.0,0.0,0.0,0.0,0.0,0.0,-0.0013030628195389664,0.001590099668321954,-4.717624968140673e-05,2.7491722135750453e-06,0.0,0.0,0.0,2.7491722135750453e-06,0.0,0.0,0.0,2.7491722135750453e-06,-0.1067355803604126,-0.023839966543197633,-9.793097371219636,7.53975837175367e-06,0.0,0.0,0.0,7.53975837175367e-06,0.0,0.0,0.0,7.53975837175367e-06
1774725869.981866,22537,1774725869,981158573,imu_link,-0.951222481062496,0.3084607253269314,0.004649087290225292,0.0024816203296486963,0.0,0.0,0.0,0.0,0.0,0.0,0.0,0.0,0.0,-0.0020048248051808466,0.00196366994141882,0.0004199436713223556,2.7491722135750453e-06,0.0,0.0,0.0,2.7491722135750453e-06,0.0,0.0,0.0,2.7491722135750453e-06,-0.10369551881027221,-0.013935249879837035,-9.795323480806351,7.53975837175367e-06,0.0,0.0,0.0,7.53975837175367e-06,0.0,0.0,0.0,7.53975837175367e-06
1774725869.9858758,22538,1774725869,985158573,imu_link,-0.9512260722129183,0.30844872652428396,0.0047165094626380995,0.002469248148706561,0.0,0.0,0.0,0.0,0.0,0.0,0.0,0.0,0.0,-0.002758737228872317,0.002338601571332242,0.00018973474298430358,2.7491722135750453e-06,0.0,0.0,0.0,2.7491722135750453e-06,0.0,0.0,0.0,2.7491722135750453e-06,-0.1133942958202362,-0.02542864386940002,-9.806561901891708,7.53975837175367e-06,0.0,0.0,0.0,7.53975837175367e-06,0.0,0.0,0.0,7.53975837175367e-06
1774725869.9898612,22539,1774725869,989158573,imu_link,-0.9512290776779824,0.30843880032383814,0.004774251114221353,0.0024402378951586634,0.0,0.0,0.0,0.0,0.0,0.0,0.0,0.0,0.0,-0.0023621286096491253,0.0009602627011547601,0.00045209263614409115,2.7491722135750453e-06,0.0,0.0,0.0,2.7491722135750453e-06,0.0,0.0,0.0,2.7491722135750453e-06,-0.10352880575752259,-0.008394492538452149,-9.79599033301735,7.53975837175367e-06,0.0,0.0,0.0,7.53975837175367e-06,0.0,0.0,0.0,7.53975837175367e-06
1774725869.9938326,22540,1774725869,993158573,imu_link,-0.9512318207766036,0.30842957521107967,0.004827117786024136,0.002432942872420023,0.0,0.0,0.0,0.0,0.0,0.0,0.0,0.0,0.0,-0.0019269307606643396,0.0008478460440338054,0.0007664787943058297,2.7491722135750453e-06,0.0,0.0,0.0,2.7491722135750453e-06,0.0,0.0,0.0,2.7491722135750453e-06,-0.10693171336364747,-0.026840801492691038,-9.789812143415451,7.53975837175367e-06,0.0,0.0,0.0,7.53975837175367e-06,0.0,0.0,0.0,7.53975837175367e-06
1774725869.9978242,22541,1774725869,997158573,imu_link,-0.9512324064729416,0.30842758668331605,0.004844204622988892,0.00242205077829983,0.0,0.0,0.0,0.0,0.0,0.0,0.0,0.0,0.0,-0.00273625738810663,0.0017059895306543774,0.0002051460002794135,2.7491722135750453e-06,0.0,0.0,0.0,2.7491722135750453e-06,0.0,0.0,0.0,2.7491722135750453e-06,-0.10955989560699463,-0.01177778684425354,-9.8057185299778,7.53975837175367e-06,0.0,0.0,0.0,7.53975837175367e-06,0.0,0.0,0.0,7.53975837175367e-06
1774725870.0018694,22542,1774725870,1158573,imu_link,-0.951233333834997,0.3084246804396169,0.004846328004751573,0.0024236752562521563,0.0,0.0,0.0,0.0,0.0,0.0,0.0,0.0,0.0,-0.0027712163330240766,0.001723599902807,-0.0002763205271757422,2.7491722135750453e-06,0.0,0.0,0.0,2.7491722135750453e-06,0.0,0.0,0.0,2.7491722135750453e-06,-0.10060642400932313,-0.02643872883605957,-9.802472528774262,7.53975837175367e-06,0.0,0.0,0.0,7.53975837175367e-06,0.0,0.0,0.0,7.53975837175367e-06
1774725870.0058327,22543,1774725870,5158573,imu_link,-0.9512327066779955,0.30842668966770254,0.004836753471522195,0.0024332411579920566,0.0,0.0,0.0,0.0,0.0,0.0,0.0,0.0,0.0,-0.002281407131744388,0.0012442975836243174,0.00045242424870197014,2.7491722135750453e-06,0.0,0.0,0.0,2.7491722135750453e-06,0.0,0.0,0.0,2.7491722135750453e-06,-0.1053724559879303,-0.025713036724090577,-9.789517943910598,7.53975837175367e-06,0.0,0.0,0.0,7.53975837175367e-06,0.0,0.0,0.0,7.53975837175367e-06
1774725870.0098162,22544,1774725870,9158573,imu_link,-0.9512311677198173,0.30843170023086014,0.004812712819910974,0.002447375411911861,0.0,0.0,0.0,0.0,0.0,0.0,0.0,0.0,0.0,-0.0024317672468036995,0.001209897144067509,0.00022020819172412456,2.7491722135750453e-06,0.0,0.0,0.0,2.7491722135750453e-06,0.0,0.0,0.0,2.7491722135750453e-06,-0.10749069242286682,-0.02420281259918213,-9.798118376102448,7.53975837175367e-06,0.0,0.0,0.0,7.53975837175367e-06,0.0,0.0,0.0,7.53975837175367e-06
1774725870.0138397,22545,1774725870,13158573,imu_link,-0.9512297996534379,0.30843602560171113,0.004800197097951413,0.002458550410714396,0.0,0.0,0.0,0.0,0.0,0.0,0.0,0.0,0.0,-0.0028284805857820105,0.0007565304175694621,-9.529497715889038e-05,2.7491722135750453e-06,0.0,0.0,0.0,2.7491722135750453e-06,0.0,0.0,0.0,2.7491722135750453e-06,-0.11509084629821777,-0.01983885327720642,-9.804080819400788,7.53975837175367e-06,0.0,0.0,0.0,7.53975837175367e-06,0.0,0.0,0.0,7.53975837175367e-06
1774725870.0175953,22546,1774725870,17158573,imu_link,-0.9512304163420557,0.3084339769194723,0.004813325784685945,0.0024512858356840997,0.0,0.0,0.0,0.0,0.0,0.0,0.0,0.0,0.0,-0.0021556212525531567,-1.2391837689159741e-06,-0.0002641381289968218,2.7491722135750453e-06,0.0,0.0,0.0,2.7491722135750453e-06,0.0,0.0,0.0,2.7491722135750453e-06,-0.10645118750572205,-0.013601823774337768,-9.789184517805099,7.53975837175367e-06,0.0,0.0,0.0,7.53975837175367e-06,0.0,0.0,0.0,7.53975837175367e-06
1774725870.021843,22547,1774725870,21158573,imu_link,-0.9512303192995871,0.3084337754820127,0.0048382384961532425,0.002465204934935232,0.0,0.0,0.0,0.0,0.0,0.0,0.0,0.0,0.0,-0.0010647206568866207,0.001290967687822646,0.0007156548064877549,2.7491722135750453e-06,0.0,0.0,0.0,2.7491722135750453e-06,0.0,0.0,0.0,2.7491722135750453e-06,-0.1253682156677246,-0.026321049034118655,-9.775327721126557,7.53975837175367e-06,0.0,0.0,0.0,7.53975837175367e-06,0.0,0.0,0.0,7.53975837175367e-06
1774725870.0258088,22548,1774725870,25158573,imu_link,-0.9512316811090309,0.30842912858496074,0.004873923613210737,0.002450788326551677,0.0,0.0,0.0,0.0,0.0,0.0,0.0,0.0,0.0,-0.0022673746845583535,0.001527599427808037,0.00043631485970606245,2.7491722135750453e-06,0.0,0.0,0.0,2.7491722135750453e-06,0.0,0.0,0.0,2.7491722135750453e-06,-0.1116192921409607,-0.01261135210800171,-9.786693628664016,7.53975837175367e-06,0.0,0.0,0.0,7.53975837175367e-06,0.0,0.0,0.0,7.53975837175367e-06
1774725870.0296612,22549,1774725870,29158573,imu_link,-0.9512346521424551,0.3084192946778838,0.004924839025361843,0.002433350446085569,0.0,0.0,0.0,0.0,0.0,0.0,0.0,0.0,0.0,-0.002091410589372285,0.00028248153943528226,-0.00021394245970946492,2.7491722135750453e-06,0.0,0.0,0.0,2.7491722135750453e-06,0.0,0.0,0.0,2.7491722135750453e-06,-0.10635312100410461,-0.016082906265258788,-9.784467519077301,7.53975837175367e-06,0.0,0.0,0.0,7.53975837175367e-06,0.0,0.0,0.0,7.53975837175367e-06
1774725870.033794,22550,1774725870,33158573,imu_link,-0.9512378782810376,0.3084086983067244,0.004977805329003554,0.002407319307466586,0.0,0.0,0.0,0.0,0.0,0.0,0.0,0.0,0.0,-0.0009126501191603549,0.0023793724626588295,-0.0007772125692055949,2.7491722135750453e-06,0.0,0.0,0.0,2.7491722135750453e-06,0.0,0.0,0.0,2.7491722135750453e-06,-0.11156045223999024,-0.004354152671813965,-9.796480665525436,7.53975837175367e-06,0.0,0.0,0.0,7.53975837175367e-06,0.0,0.0,0.0,7.53975837175367e-06
1774725870.037738,22551,1774725870,37158573,imu_link,-0.9512360953610932,0.3084151811401398,0.004921522407242312,0.002396985955468152,0.0,0.0,0.0,0.0,0.0,0.0,0.0,0.0,0.0,-0.0018366623317511927,0.0015182619163098673,-0.000394898196556237,2.7491722135750453e-06,0.0,0.0,0.0,2.7491722135750453e-06,0.0,0.0,0.0,2.7491722135750453e-06,-0.08608277511978149,-0.0017553903789520263,-9.785899290000916,7.53975837175367e-06,0.0,0.0,0.0,7.53975837175367e-06,0.0,0.0,0.0,7.53975837175367e-06
1774725870.0418084,22552,1774725870,41158573,imu_link,-0.9512342518322553,0.3084220126855436,0.0048565302040642095,0.0023820886853501283,0.0,0.0,0.0,0.0,0.0,0.0,0.0,0.0,0.0,-0.002566628838105301,0.001275818229915335,-9.489355143093169e-05,2.7491722135750453e-06,0.0,0.0,0.0,2.7491722135750453e-06,0.0,0.0,0.0,2.7491722135750453e-06,-0.0748149340839386,-0.0023535960388183595,-9.798951941366195,7.53975837175367e-06,0.0,0.0,0.0,7.53975837175367e-06,0.0,0.0,0.0,7.53975837175367e-06
1774725870.0458043,22553,1774725870,45158573,imu_link,-0.9512312396713072,0.3084328226688253,0.004754848429038675,0.0023903954371305375,0.0,0.0,0.0,0.0,0.0,0.0,0.0,0.0,0.0,-0.0021428978023061178,0.002098496626135382,-0.0007253064772512835,2.7491722135750453e-06,0.0,0.0,0.0,2.7491722135750453e-06,0.0,0.0,0.0,2.7491722135750453e-06,-0.07096092057037354,-0.01546508730506897,-9.803629713493347,7.53975837175367e-06,0.0,0.0,0.0,7.53975837175367e-06,0.0,0.0,0.0,7.53975837175367e-06
1774725870.0497756,22554,1774725870,49158573,imu_link,-0.9512261289103052,0.30845061110025124,0.004613592610421938,0.0024056087424783167,0.0,0.0,0.0,0.0,0.0,0.0,0.0,0.0,0.0,-0.0024619090829856413,0.0028072573820777593,0.0005718920360009819,2.7491722135750453e-06,0.0,0.0,0.0,2.7491722135750453e-06,0.0,0.0,0.0,2.7491722135750453e-06,-0.05578022611999512,-0.018799348360061648,-9.81197517278099,7.53975837175367e-06,0.0,0.0,0.0,7.53975837175367e-06,0.0,0.0,0.0,7.53975837175367e-06
1774725870.0538094,22555,1774725870,53158573,imu_link,-0.9512219677662079,0.30846517443179966,0.004483700448576752,0.002429121658208982,0.0,0.0,0.0,0.0,0.0,0.0,0.0,0.0,0.0,-0.0050932721830474125,0.0005807583086011131,-0.00022368139693559327,2.7491722135750453e-06,0.0,0.0,0.0,2.7491722135750453e-06,0.0,0.0,0.0,2.7491722135750453e-06,-0.05563312636756897,-0.03443114871788025,-9.857311316478729,7.53975837175367e-06,0.0,0.0,0.0,7.53975837175367e-06,0.0,0.0,0.0,7.53975837175367e-06
1774725870.0577753,22556,1774725870,57158573,imu_link,-0.9512184819111925,0.30847731484137486,0.004370835745689633,0.0024579857009259785,0.0,0.0,0.0,0.0,0.0,0.0,0.0,0.0,0.0,-0.005101562496994385,0.0017277712397192665,0.000475846567263734,2.7491722135750453e-06,0.0,0.0,0.0,2.7491722135750453e-06,0.0,0.0,0.0,2.7491722135750453e-06,-0.05813382215881348,-0.04758186658477784,-9.913268062301636,7.53975837175367e-06,0.0,0.0,0.0,7.53975837175367e-06,0.0,0.0,0.0,7.53975837175367e-06
1774725870.0617924,22557,1774725870,61158573,imu_link,-0.9512146332217449,0.3084903763702625,0.0042698649851896,0.002485454639198722,0.0,0.0,0.0,0.0,0.0,0.0,0.0,0.0,0.0,-0.004677883821072762,0.001164675663148336,0.001121566030624076,2.7491722135750453e-06,0.0,0.0,0.0,2.7491722135750453e-06,0.0,0.0,0.0,2.7491722135750453e-06,-0.06430220511054993,-0.04418876562881469,-9.915415718687058,7.53975837175367e-06,0.0,0.0,0.0,7.53975837175367e-06,0.0,0.0,0.0,7.53975837175367e-06
1774725870.0657868,22558,1774725870,65158573,imu_link,-0.9512116834692549,0.3085000746673129,0.004210489470360104,0.0025117603922664997,0.0,0.0,0.0,0.0,0.0,0.0,0.0,0.0,0.0,-0.0047866876466420875,-8.236208740161242e-05,-2.626720524251466e-05,2.7491722135750453e-06,0.0,0.0,0.0,2.7491722135750453e-06,0.0,0.0,0.0,2.7491722135750453e-06,-0.09246690437507629,-0.0357158198890686,-9.911973584480286,7.53975837175367e-06,0.0,0.0,0.0,7.53975837175367e-06,0.0,0.0,0.0,7.53975837175367e-06
1774725870.0698242,22559,1774725870,69158573,imu_link,-0.9512085250041088,0.30850987196586266,0.00418639740483076,0.0025445895314258455,0.0,0.0,0.0,0.0,0.0,0.0,0.0,0.0,0.0,-0.0024495521518815215,-0.000472460628514865,0.0002836160034490786,2.7491722135750453e-06,0.0,0.0,0.0,2.7491722135750453e-06,0.0,0.0,0.0,2.7491722135750453e-06,-0.12010204453086852,-0.029272850732803342,-9.815917446146011,7.53975837175367e-06,0.0,0.0,0.0,7.53975837175367e-06,0.0,0.0,0.0,7.53975837175367e-06
1774725870.073747,22560,1774725870,73158573,imu_link,-0.95120424418898,0.30852294681991765,0.004171247456092367,0.0025841472647070763,0.0,0.0,0.0,0.0,0.0,0.0,0.0,0.0,0.0,-0.00044760713996646576,-0.0003526088687804144,0.001458624015769221,2.7491722135750453e-06,0.0,0.0,0.0,2.7491722135750453e-06,0.0,0.0,0.0,2.7491722135750453e-06,-0.13330179564857483,-0.02637008228492737,-9.783173041255951,7.53975837175367e-06,0.0,0.0,0.0,7.53975837175367e-06,0.0,0.0,0.0,7.53975837175367e-06
1774725870.0778222,22561,1774725870,77158573,imu_link,-0.9511993675317306,0.30853782506775257,0.00415963925345546,0.0026212804081133505,0.0,0.0,0.0,0.0,0.0,0.0,0.0,0.0,0.0,2.2759093446006057e-05,-0.0010608634792397132,0.0006094515215039,2.7491722135750453e-06,0.0,0.0,0.0,2.7491722135750453e-06,0.0,0.0,0.0,2.7491722135750453e-06,-0.14688400612258912,-0.012532898906707765,-9.73421824364853,7.53975837175367e-06,0.0,0.0,0.0,7.53975837175367e-06,0.0,0.0,0.0,7.53975837175367e-06
1774725870.0818317,22562,1774725870,81158573,imu_link,-0.9511947587000589,0.3085520207858645,0.004144477992249232,0.002646656885147939,0.0,0.0,0.0,0.0,0.0,0.0,0.0,0.0,0.0,0.00039386845229756037,0.00014348351780645382,0.0002455329191705623,2.7491722135750453e-06,0.0,0.0,0.0,2.7491722135750453e-06,0.0,0.0,0.0,2.7491722135750453e-06,-0.14256908005142213,-0.0038540135135650636,-9.74401508716011,7.53975837175367e-06,0.0,0.0,0.0,7.53975837175367e-06,0.0,0.0,0.0,7.53975837175367e-06
1774725870.085778,22563,1774725870,85158573,imu_link,-0.9511911616191404,0.308562940346519,0.004149329868724919,0.0026587523354288786,0.0,0.0,0.0,0.0,0.0,0.0,0.0,0.0,0.0,-0.0006846577589723356,-0.00026935666346028487,0.000479529211985442,2.7491722135750453e-06,0.0,0.0,0.0,2.7491722135750453e-06,0.0,0.0,0.0,2.7491722135750453e-06,-0.13924462564659118,-0.002706635444641113,-9.807503340307235,7.53975837175367e-06,0.0,0.0,0.0,7.53975837175367e-06,0.0,0.0,0.0,7.53975837175367e-06
1774725870.089844,22564,1774725870,89158573,imu_link,-0.9511880471006418,0.308572167753895,0.004171754113858751,0.0026669848411026804,0.0,0.0,0.0,0.0,0.0,0.0,0.0,0.0,0.0,-0.002284461457935378,-0.00030401890240489227,0.00028356364357151874,2.7491722135750453e-06,0.0,0.0,0.0,2.7491722135750453e-06,0.0,0.0,0.0,2.7491722135750453e-06,-0.14759989158439638,-0.0018730701808929444,-9.791391014091491,7.53975837175367e-06,0.0,0.0,0.0,7.53975837175367e-06,0.0,0.0,0.0,7.53975837175367e-06
1774725870.0938003,22565,1774725870,93158573,imu_link,-0.9511858523770518,0.3085783212540092,0.00422029468385884,0.0026613910987151298,0.0,0.0,0.0,0.0,0.0,0.0,0.0,0.0,0.0,-0.0024671625240341444,-0.00035618679374700273,0.00031707396520980983,2.7491722135750453e-06,0.0,0.0,0.0,2.7491722135750453e-06,0.0,0.0,0.0,2.7491722135750453e-06,-0.1544057067966461,0.007482474073410034,-9.78963562371254,7.53975837175367e-06,0.0,0.0,0.0,7.53975837175367e-06,0.0,0.0,0.0,7.53975837175367e-06
1774725870.0977561,22566,1774725870,97158573,imu_link,-0.9511867726341745,0.3085745068316507,0.004308759688015404,0.0026328481417477426,0.0,0.0,0.0,0.0,0.0,0.0,0.0,0.0,0.0,-0.00347491563413567,0.0004157374278250493,-1.1519173063162575e-05,2.7491722135750453e-06,0.0,0.0,0.0,2.7491722135750453e-06,0.0,0.0,0.0,2.7491722135750453e-06,-0.1483844235973358,0.010385242521286012,-9.747859294023515,7.53975837175367e-06,0.0,0.0,0.0,7.53975837175367e-06,0.0,0.0,0.0,7.53975837175367e-06
1774725870.1017976,22567,1774725870,101158573,imu_link,-0.9511875776495712,0.308571130441461,0.004389281752116684,0.0026045707746990337,0.0,0.0,0.0,0.0,0.0,0.0,0.0,0.0,0.0,-0.004173972359436959,0.00035749579068599855,5.626941508429718e-05,2.7491722135750453e-06,0.0,0.0,0.0,2.7491722135750453e-06,0.0,0.0,0.0,2.7491722135750453e-06,-0.14337322536468505,0.00849255904006958,-9.704003954500198,7.53975837175367e-06,0.0,0.0,0.0,7.53975837175367e-06,0.0,0.0,0.0,7.53975837175367e-06
1774725870.105833,22568,1774725870,105158573,imu_link,-0.9511889967606763,0.3085659111535048,0.004469599787468569,0.0025677992845278513,0.0,0.0,0.0,0.0,0.0,0.0,0.0,0.0,0.0,-0.0035279038302262183,0.0006820921249719038,-0.00019359192063121103,2.7491722135750453e-06,0.0,0.0,0.0,2.7491722135750453e-06,0.0,0.0,0.0,2.7491722135750453e-06,-0.13613591754531862,0.013641050374984743,-9.68094851996994,7.53975837175367e-06,0.0,0.0,0.0,7.53975837175367e-06,0.0,0.0,0.0,7.53975837175367e-06
1774725870.1098166,22569,1774725870,109158573,imu_link,-0.9511901185953822,0.3085618850602586,0.004529120096736996,0.0025314908081842664,0.0,0.0,0.0,0.0,0.0,0.0,0.0,0.0,0.0,-0.0030093490561661825,0.0025510605011775118,0.0005891882488882459,2.7491722135750453e-06,0.0,0.0,0.0,2.7491722135750453e-06,0.0,0.0,0.0,2.7491722135750453e-06,-0.12090618984413147,0.008100293033599854,-9.680987746570587,7.53975837175367e-06,0.0,0.0,0.0,7.53975837175367e-06,0.0,0.0,0.0,7.53975837175367e-06
1774725870.1138494,22570,1774725870,113158573,imu_link,-0.9511919465481243,0.3085557280293946,0.004566183470339133,0.0025285352984255748,0.0,0.0,0.0,0.0,0.0,0.0,0.0,0.0,0.0,-0.0014794807003305531,0.0024887522468813143,-0.0005599365306248208,2.7491722135750453e-06,0.0,0.0,0.0,2.7491722135750453e-06,0.0,0.0,0.0,2.7491722135750453e-06,-0.11243324410438538,-0.023290794134140015,-9.706985176149368,7.53975837175367e-06,0.0,0.0,0.0,7.53975837175367e-06,0.0,0.0,0.0,7.53975837175367e-06
1774725870.117803,22571,1774725870,117158573,imu_link,-0.951193420249524,0.3085509456913124,0.004582843640658997,0.002527593949616563,0.0,0.0,0.0,0.0,0.0,0.0,0.0,0.0,0.0,-0.0019505101588587828,0.0031976177225788113,7.335618846132167e-05,2.7491722135750453e-06,0.0,0.0,0.0,2.7491722135750453e-06,0.0,0.0,0.0,2.7491722135750453e-06,-0.09821360136985778,-0.03091056130981445,-9.736611066287995,7.53975837175367e-06,0.0,0.0,0.0,7.53975837175367e-06,0.0,0.0,0.0,7.53975837175367e-06
1774725870.1218061,22572,1774725870,121158573,imu_link,-0.9511952179694425,0.3085454468736175,0.00457881851382984,0.0025296139314335223,0.0,0.0,0.0,0.0,0.0,0.0,0.0,0.0,0.0,-0.0002758492882777038,0.0021356546859103414,-0.0003140370923113397,2.7491722135750453e-06,0.0,0.0,0.0,2.7491722135750453e-06,0.0,0.0,0.0,2.7491722135750453e-06,-0.08038511137580871,-0.03631402554893494,-9.833687096239089,7.53975837175367e-06,0.0,0.0,0.0,7.53975837175367e-06,0.0,0.0,0.0,7.53975837175367e-06
1774725870.1258047,22573,1774725870,125158573,imu_link,-0.9511964930774844,0.3085420501105709,0.0045408927792277756,0.002532817290754779,0.0,0.0,0.0,0.0,0.0,0.0,0.0,0.0,0.0,-0.001759030086622485,0.001937175843373546,-0.0009920975067111368,2.7491722135750453e-06,0.0,0.0,0.0,2.7491722135750453e-06,0.0,0.0,0.0,2.7491722135750453e-06,-0.06569474943351745,-0.039256020597457884,-9.873629582347869,7.53975837175367e-06,0.0,0.0,0.0,7.53975837175367e-06,0.0,0.0,0.0,7.53975837175367e-06
1774725870.1297562,22574,1774725870,129158573,imu_link,-0.9511968797134938,0.30854123742557177,0.00450497215133566,0.0025506973803003145,0.0,0.0,0.0,0.0,0.0,0.0,0.0,0.0,0.0,-0.0019530583395666948,0.0015827867387560976,-0.0001288402053822214,2.7491722135750453e-06,0.0,0.0,0.0,2.7491722135750453e-06,0.0,0.0,0.0,2.7491722135750453e-06,-0.07465802768135071,-0.04905286410903931,-9.87767972886467,7.53975837175367e-06,0.0,0.0,0.0,7.53975837175367e-06,0.0,0.0,0.0,7.53975837175367e-06
1774725870.133816,22575,1774725870,133158573,imu_link,-0.9511970068795588,0.3085416195338834,0.004451169318627077,0.0025515114097148786,0.0,0.0,0.0,0.0,0.0,0.0,0.0,0.0,0.0,-0.0018323862750838067,0.0029333748738268697,-0.00022628193752106485,2.7491722135750453e-06,0.0,0.0,0.0,2.7491722135750453e-06,0.0,0.0,0.0,2.7491722135750453e-06,-0.06137982336235046,-0.03543142703437805,-9.864195584892272,7.53975837175367e-06,0.0,0.0,0.0,7.53975837175367e-06,0.0,0.0,0.0,7.53975837175367e-06
1774725870.137835,22576,1774725870,137158573,imu_link,-0.9511957388025762,0.3085463028006832,0.00439874193972732,0.002548839186336851,0.0,0.0,0.0,0.0,0.0,0.0,0.0,0.0,0.0,-0.002190807090273362,0.002046555627596031,-0.00021052161437555602,2.7491722135750453e-06,0.0,0.0,0.0,2.7491722135750453e-06,0.0,0.0,0.0,2.7491722135750453e-06,-0.07630554490852355,-0.019917306478500364,-9.848926630590439,7.53975837175367e-06,0.0,0.0,0.0,7.53975837175367e-06,0.0,0.0,0.0,7.53975837175367e-06
1774725870.141829,22577,1774725870,141158573,imu_link,-0.9511946911335695,0.30854990884987665,0.004365266374853918,0.0025608118873992215,0.0,0.0,0.0,0.0,0.0,0.0,0.0,0.0,0.0,-0.002638134977559509,-0.00020559978588493202,-0.0006454227573875031,2.7491722135750453e-06,0.0,0.0,0.0,2.7491722135750453e-06,0.0,0.0,0.0,2.7491722135750453e-06,-0.09081938714790344,-0.028841358125686646,-9.817996455980301,7.53975837175367e-06,0.0,0.0,0.0,7.53975837175367e-06,0.0,0.0,0.0,7.53975837175367e-06
1774725870.1457973,22578,1774725870,145158573,imu_link,-0.9511979548160105,0.3085394825438965,0.004397829490409544,0.002549031415339421,0.0,0.0,0.0,0.0,0.0,0.0,0.0,0.0,0.0,-0.0011629826937739015,0.0007102268325140525,-0.00044760713996646576,2.7491722135750453e-06,0.0,0.0,0.0,2.7491722135750453e-06,0.0,0.0,0.0,2.7491722135750453e-06,-0.08310155347061157,-0.030420228801727296,-9.814201282367705,7.53975837175367e-06,0.0,0.0,0.0,7.53975837175367e-06,0.0,0.0,0.0,7.53975837175367e-06
1774725870.1498203,22579,1774725870,149158573,imu_link,-0.95120196459166,0.3085261747648363,0.0044723663704205234,0.0025337681411186394,0.0,0.0,0.0,0.0,0.0,0.0,0.0,0.0,0.0,-0.0013680588808832352,0.0015548265641391484,0.00038465311384703026,2.7491722135750453e-06,0.0,0.0,0.0,2.7491722135750453e-06,0.0,0.0,0.0,2.7491722135750453e-06,-0.1033522860546112,-0.028174505914688112,-9.85151558623314,7.53975837175367e-06,0.0,0.0,0.0,7.53975837175367e-06,0.0,0.0,0.0,7.53975837175367e-06
1774725870.1538281,22580,1774725870,153158573,imu_link,-0.9512062159755768,0.30851191349418394,0.004560892982920175,0.002516381684041996,0.0,0.0,0.0,0.0,0.0,0.0,0.0,0.0,0.0,-0.0021483955894499,0.0011800171072733662,0.00016973326975644853,2.7491722135750453e-06,0.0,0.0,0.0,2.7491722135750453e-06,0.0,0.0,0.0,2.7491722135750453e-06,-0.1138944349784851,-0.024222425899505615,-9.831863059309006,7.53975837175367e-06,0.0,0.0,0.0,7.53975837175367e-06,0.0,0.0,0.0,7.53975837175367e-06
1774725870.1578188,22581,1774725870,157158573,imu_link,-0.951210520106888,0.3084970266608046,0.004678425589993668,0.0024986623272443905,0.0,0.0,0.0,0.0,0.0,0.0,0.0,0.0,0.0,-0.0017886657773213488,0.0003825238121595972,0.0009978221866576782,2.7491722135750453e-06,0.0,0.0,0.0,2.7491722135750453e-06,0.0,0.0,0.0,2.7491722135750453e-06,-0.13262513678741455,-0.019387747369766235,-9.832863337625502,7.53975837175367e-06,0.0,0.0,0.0,7.53975837175367e-06,0.0,0.0,0.0,7.53975837175367e-06
1774725870.1617882,22582,1774725870,161158573,imu_link,-0.9512149612386076,0.3084817687545386,0.004796991455563564,0.00246672553816606,0.0,0.0,0.0,0.0,0.0,0.0,0.0,0.0,0.0,-0.0012826773738756727,0.0013557543096566751,0.0004671373742962823,2.7491722135750453e-06,0.0,0.0,0.0,2.7491722135750453e-06,0.0,0.0,0.0,2.7491722135750453e-06,-0.1350866059780121,-0.0020495898838043215,-9.77113047485733,7.53975837175367e-06,0.0,0.0,0.0,7.53975837175367e-06,0.0,0.0,0.0,7.53975837175367e-06
1774725870.1658406,22583,1774725870,165158573,imu_link,-0.9512180742128542,0.3084705446068648,0.004909727883089743,0.0024480549110249767,0.0,0.0,0.0,0.0,0.0,0.0,0.0,0.0,0.0,-0.002057219589325716,0.0004968079715801859,0.0006996850438320067,2.7491722135750453e-06,0.0,0.0,0.0,2.7491722135750453e-06,0.0,0.0,0.0,2.7491722135750453e-06,-0.14896301595687866,-0.005668243793487548,-9.73382597764206,7.53975837175367e-06,0.0,0.0,0.0,7.53975837175367e-06,0.0,0.0,0.0,7.53975837175367e-06
1774725870.1698353,22584,1774725870,169158573,imu_link,-0.9512214129605874,0.308458928120978,0.005001436087072395,0.002428749634691679,0.0,0.0,0.0,0.0,0.0,0.0,0.0,0.0,0.0,-0.0010643890443287419,0.0009273108848771072,-0.0002481509130485538,2.7491722135750453e-06,0.0,0.0,0.0,2.7491722135750453e-06,0.0,0.0,0.0,2.7491722135750453e-06,-0.13767556162071226,-0.0044620258235931395,-9.727402621786117,7.53975837175367e-06,0.0,0.0,0.0,7.53975837175367e-06,0.0,0.0,0.0,7.53975837175367e-06
1774725870.1737623,22585,1774725870,173158573,imu_link,-0.9512245021630671,0.3084479788989196,0.00510250199101887,0.0023990146370246376,0.0,0.0,0.0,0.0,0.0,0.0,0.0,0.0,0.0,-0.0014460401918623418,0.0009875771039484715,0.00043360959936547126,2.7491722135750453e-06,0.0,0.0,0.0,2.7491722135750453e-06,0.0,0.0,0.0,2.7491722135750453e-06,-0.14218662069511415,0.006050703149795533,-9.729236465366364,7.53975837175367e-06,0.0,0.0,0.0,7.53975837175367e-06,0.0,0.0,0.0,7.53975837175367e-06
1774725870.1778321,22586,1774725870,177158573,imu_link,-0.9512287652610844,0.30843365162915615,0.005196830201627599,0.0023476878908899354,0.0,0.0,0.0,0.0,0.0,0.0,0.0,0.0,0.0,-0.003107680906223543,0.0022181214930670737,0.00014042919161546375,2.7491722135750453e-06,0.0,0.0,0.0,2.7491722135750453e-06,0.0,0.0,0.0,2.7491722135750453e-06,-0.12160246200561523,0.013366464170455934,-9.757714977436065,7.53975837175367e-06,0.0,0.0,0.0,7.53975837175367e-06,0.0,0.0,0.0,7.53975837175367e-06
1774725870.1818242,22587,1774725870,181158573,imu_link,-0.9512328101576089,0.3084200616556468,0.005281015475162377,0.002305932248882789,0.0,0.0,0.0,0.0,0.0,0.0,0.0,0.0,0.0,-0.004095449996389734,0.0028386384020286175,0.0004425456851356822,2.7491722135750453e-06,0.0,0.0,0.0,2.7491722135750453e-06,0.0,0.0,0.0,2.7491722135750453e-06,-0.1189840864124298,0.0017259704284667968,-9.778112809772491,7.53975837175367e-06,0.0,0.0,0.0,7.53975837175367e-06,0.0,0.0,0.0,7.53975837175367e-06
1774725870.1858282,22588,1774725870,185158573,imu_link,-0.9512380086840596,0.3084027655312296,0.005374711572772933,0.0022577694708826737,0.0,0.0,0.0,0.0,0.0,0.0,0.0,0.0,0.0,-0.003758810890265068,0.002426548712340236,0.0003248406803811846,2.7491722135750453e-06,0.0,0.0,0.0,2.7491722135750453e-06,0.0,0.0,0.0,2.7491722135750453e-06,-0.10980506186103821,0.0014611908740997314,-9.784565585578918,7.53975837175367e-06,0.0,0.0,0.0,7.53975837175367e-06,0.0,0.0,0.0,7.53975837175367e-06
1774725870.1898062,22589,1774725870,189158573,imu_link,-0.9512435279868563,0.30838455556665567,0.005458619869802997,0.002218066769081638,0.0,0.0,0.0,0.0,0.0,0.0,0.0,0.0,0.0,-0.003778253858132285,0.002759156107892796,0.00040851176472179275,2.7491722135750453e-06,0.0,0.0,0.0,2.7491722135750453e-06,0.0,0.0,0.0,2.7491722135750453e-06,-0.10006705825042723,-0.011120741283416748,-9.752576292751312,7.53975837175367e-06,0.0,0.0,0.0,7.53975837175367e-06,0.0,0.0,0.0,7.53975837175367e-06
1774725870.1937609,22590,1774725870,193158573,imu_link,-0.9512490459321522,0.308366467981434,0.0055278430739855115,0.00219476394511097,0.0,0.0,0.0,0.0,0.0,0.0,0.0,0.0,0.0,-0.0049248130036449195,0.0023137480827838427,9.46142987506126e-05,2.7491722135750453e-06,0.0,0.0,0.0,2.7491722135750453e-06,0.0,0.0,0.0,2.7491722135750453e-06,-0.09511469991874694,-0.02932188398361206,-9.754576849384307,7.53975837175367e-06,0.0,0.0,0.0,7.53975837175367e-06,0.0,0.0,0.0,7.53975837175367e-06
1774725870.1977904,22591,1774725870,197158573,imu_link,-0.9512536547644366,0.30835147477341,0.005580965926905455,0.002169129246581294,0.0,0.0,0.0,0.0,0.0,0.0,0.0,0.0,0.0,-0.0031002108970250076,0.0033496009938424774,0.0005078035458677501,2.7491722135750453e-06,0.0,0.0,0.0,2.7491722135750453e-06,0.0,0.0,0.0,2.7491722135750453e-06,-0.09129010635566712,-0.022555295372009277,-9.799040201217652,7.53975837175367e-06,0.0,0.0,0.0,7.53975837175367e-06,0.0,0.0,0.0,7.53975837175367e-06
1774725870.2018201,22592,1774725870,201158573,imu_link,-0.9512587047015012,0.3083351726953623,0.005628549790687518,0.0021488219556249325,0.0,0.0,0.0,0.0,0.0,0.0,0.0,0.0,0.0,-0.0038306486422771545,0.0028102593483911894,-0.00022230258682651776,2.7491722135750453e-06,0.0,0.0,0.0,2.7491722135750453e-06,0.0,0.0,0.0,2.7491722135750453e-06,-0.08875018396377564,-0.02913555763053894,-9.835226740314484,7.53975837175367e-06,0.0,0.0,0.0,7.53975837175367e-06,0.0,0.0,0.0,7.53975837175367e-06
1774725870.2058275,22593,1774725870,205158573,imu_link,-0.9512624393827162,0.3083234414523185,0.005645852043945723,0.002133360105815936,0.0,0.0,0.0,0.0,0.0,0.0,0.0,0.0,0.0,-0.003985127734371173,0.0034401661287284634,0.00017770942443806265,2.7491722135750453e-06,0.0,0.0,0.0,2.7491722135750453e-06,0.0,0.0,0.0,2.7491722135750453e-06,-0.08423912488937378,-0.029214010831832886,-9.866225561475755,7.53975837175367e-06,0.0,0.0,0.0,7.53975837175367e-06,0.0,0.0,0.0,7.53975837175367e-06
1774725870.2098527,22594,1774725870,209158573,imu_link,-0.951265434050574,0.3083140397045266,0.005656310480673093,0.0021290968495490323,0.0,0.0,0.0,0.0,0.0,0.0,0.0,0.0,0.0,-0.002446707265200771,0.0030069579550909505,0.0006884625767416833,2.7491722135750453e-06,0.0,0.0,0.0,2.7491722135750453e-06,0.0,0.0,0.0,2.7491722135750453e-06,-0.0873576396408081,-0.03346029035186768,-9.878434840927124,7.53975837175367e-06,0.0,0.0,0.0,7.53975837175367e-06,0.0,0.0,0.0,7.53975837175367e-06
1774725870.2137702,22595,1774725870,213158573,imu_link,-0.9512688804658924,0.30830328750178476,0.005668199953148729,0.002114587915031398,0.0,0.0,0.0,0.0,0.0,0.0,0.0,0.0,0.0,-0.0028060531048938833,0.0021539806430562816,0.0005050110190645593,2.7491722135750453e-06,0.0,0.0,0.0,2.7491722135750453e-06,0.0,0.0,0.0,2.7491722135750453e-06,-0.07955154611206054,-0.027654753456115722,-9.87042280774498,7.53975837175367e-06,0.0,0.0,0.0,7.53975837175367e-06,0.0,0.0,0.0,7.53975837175367e-06
1774725870.2178133,22596,1774725870,217158573,imu_link,-0.9512727877873141,0.30829094801314993,0.005688679444294437,0.0021008366631916175,0.0,0.0,0.0,0.0,0.0,0.0,0.0,0.0,0.0,-0.0019116416764168693,0.0011961090429767538,0.0013482668471656196,2.7491722135750453e-06,0.0,0.0,0.0,2.7491722135750453e-06,0.0,0.0,0.0,2.7491722135750453e-06,-0.0714316397781372,-0.03354855020332336,-9.874051268304823,7.53975837175367e-06,0.0,0.0,0.0,7.53975837175367e-06,0.0,0.0,0.0,7.53975837175367e-06
1774725870.221794,22597,1774725870,221158573,imu_link,-0.9512771928439598,0.3082773903819389,0.005693342463429993,0.0020829800314205436,0.0,0.0,0.0,0.0,0.0,0.0,0.0,0.0,0.0,-0.0019368442308156674,0.001897207803502876,0.0006521597283002012,2.7491722135750453e-06,0.0,0.0,0.0,2.7491722135750453e-06,0.0,0.0,0.0,2.7491722135750453e-06,-0.05811420885848999,-0.03382313640785217,-9.866441307779313,7.53975837175367e-06,0.0,0.0,0.0,7.53975837175367e-06,0.0,0.0,0.0,7.53975837175367e-06
1774725870.2257864,22598,1774725870,225158573,imu_link,-0.9512842234761694,0.3082552665206474,0.005726822266310448,0.002054345237815285,0.0,0.0,0.0,0.0,0.0,0.0,0.0,0.0,0.0,-0.0034687197152910906,0.0013997017002218926,-0.0004913101844364038,2.7491722135750453e-06,0.0,0.0,0.0,2.7491722135750453e-06,0.0,0.0,0.0,2.7491722135750453e-06,-0.05627055862808228,-0.03341125710105896,-9.82946043001938,7.53975837175367e-06,0.0,0.0,0.0,7.53975837175367e-06,0.0,0.0,0.0,7.53975837175367e-06
1774725870.2298443,22599,1774725870,229158573,imu_link,-0.9512916699984817,0.3082312780747977,0.0057924561849984416,0.002021202419782153,0.0,0.0,0.0,0.0,0.0,0.0,0.0,0.0,0.0,-0.0021837385068027852,0.0011649025559510953,-0.0005276479394629257,2.7491722135750453e-06,0.0,0.0,0.0,2.7491722135750453e-06,0.0,0.0,0.0,2.7491722135750453e-06,-0.07754118282890321,-0.020809711643218997,-9.832451458318712,7.53975837175367e-06,0.0,0.0,0.0,7.53975837175367e-06,0.0,0.0,0.0,7.53975837175367e-06
1774725870.233807,22600,1774725870,233158573,imu_link,-0.9512972981502392,0.3082132441017263,0.005833057680743894,0.0020055249780779314,0.0,0.0,0.0,0.0,0.0,0.0,0.0,0.0,0.0,-0.0012435645453384796,0.0008224689567098079,0.0007649952644416346,2.7491722135750453e-06,0.0,0.0,0.0,2.7491722135750453e-06,0.0,0.0,0.0,2.7491722135750453e-06,-0.07557004614639283,-0.030979207860946656,-9.785320697641373,7.53975837175367e-06,0.0,0.0,0.0,7.53975837175367e-06,0.0,0.0,0.0,7.53975837175367e-06
1774725870.2378197,22601,1774725870,237158573,imu_link,-0.9512999737798317,0.3082046566727169,0.005855666165473352,0.00199014208103037,0.0,0.0,0.0,0.0,0.0,0.0,0.0,0.0,0.0,-0.0014343813924590197,-0.0004431914569589201,-1.738347934986352e-05,2.7491722135750453e-06,0.0,0.0,0.0,2.7491722135750453e-06,0.0,0.0,0.0,2.7491722135750453e-06,-0.10169496217727662,-0.006256642803192138,-9.75802879024124,7.53975837175367e-06,0.0,0.0,0.0,7.53975837175367e-06,0.0,0.0,0.0,7.53975837175367e-06
1774725870.241809,22602,1774725870,241158573,imu_link,-0.9513025514874186,0.3081959166213928,0.005902337930732645,0.0019735547567745304,0.0,0.0,0.0,0.0,0.0,0.0,0.0,0.0,0.0,-0.0023991470430839252,-0.0006704507788611017,-0.00016521286699378325,2.7491722135750453e-06,0.0,0.0,0.0,2.7491722135750453e-06,0.0,0.0,0.0,2.7491722135750453e-06,-0.12307345952987671,0.0006766588611602783,-9.766805742136,7.53975837175367e-06,0.0,0.0,0.0,7.53975837175367e-06,0.0,0.0,0.0,7.53975837175367e-06
1774725870.2457924,22603,1774725870,245158573,imu_link,-0.951299911467294,0.30820440557524714,0.005875531190181516,0.0020002398756457387,0.0,0.0,0.0,0.0,0.0,0.0,0.0,0.0,0.0,-0.0013845173357295416,-0.00026082200341803264,0.00048101274184963723,2.7491722135750453e-06,0.0,0.0,0.0,2.7491722135750453e-06,0.0,0.0,0.0,2.7491722135750453e-06,-0.1342040074634552,-0.00985568341255188,-9.736405126634597,7.53975837175367e-06,0.0,0.0,0.0,7.53975837175367e-06,0.0,0.0,0.0,7.53975837175367e-06
1774725870.2498283,22604,1774725870,249158573,imu_link,-0.9512962866464797,0.30821642555129486,0.005823111507053985,0.0020251926768492237,0.0,0.0,0.0,0.0,0.0,0.0,0.0,0.0,0.0,-0.0016707687863491316,-0.00016231562043547264,-0.00019903734789743333,2.7491722135750453e-06,0.0,0.0,0.0,2.7491722135750453e-06,0.0,0.0,0.0,2.7491722135750453e-06,-0.13067361340522765,-0.0016573238773345946,-9.719547495006562,7.53975837175367e-06,0.0,0.0,0.0,7.53975837175367e-06,0.0,0.0,0.0,7.53975837175367e-06
1774725870.2537744,22605,1774725870,253158573,imu_link,-0.951292498939225,0.3082286094602072,0.005783537847990235,0.0020631195197883937,0.0,0.0,0.0,0.0,0.0,0.0,0.0,0.0,0.0,-0.0030352846488508186,-0.000493404579538797,-0.000611894982456692,2.7491722135750453e-06,0.0,0.0,0.0,2.7491722135750453e-06,0.0,0.0,0.0,2.7491722135750453e-06,-0.14871784970283508,-0.008796565195083619,-9.738621429571152,7.53975837175367e-06,0.0,0.0,0.0,7.53975837175367e-06,0.0,0.0,0.0,7.53975837175367e-06
1774725870.2578156,22606,1774725870,257158573,imu_link,-0.9512866505791098,0.30824747055691426,0.005725199537401297,0.002104142461897085,0.0,0.0,0.0,0.0,0.0,0.0,0.0,0.0,0.0,-0.003078760800517997,-0.0006153507343756407,0.0011315667672380037,2.7491722135750453e-06,0.0,0.0,0.0,2.7491722135750453e-06,0.0,0.0,0.0,2.7491722135750453e-06,-0.14825693714523314,-0.005511337390899658,-9.756812765621184,7.53975837175367e-06,0.0,0.0,0.0,7.53975837175367e-06,0.0,0.0,0.0,7.53975837175367e-06
1774725870.2617912,22607,1774725870,261158573,imu_link,-0.9512816938694652,0.3082636834137254,0.005658746350263868,0.002149182818421528,0.0,0.0,0.0,0.0,0.0,0.0,0.0,0.0,0.0,-0.003741025985187246,0.00034618605713307524,-6.09119908946021e-05,2.7491722135750453e-06,0.0,0.0,0.0,2.7491722135750453e-06,0.0,0.0,0.0,2.7491722135750453e-06,-0.1422062339954376,-0.01469036194229126,-9.768070800006866,7.53975837175367e-06,0.0,0.0,0.0,7.53975837175367e-06,0.0,0.0,0.0,7.53975837175367e-06
1774725870.2658374,22608,1774725870,265158573,imu_link,-0.9512771673210855,0.30827823824636197,0.00560867630094137,0.0021957931236816783,0.0,0.0,0.0,0.0,0.0,0.0,0.0,0.0,0.0,-0.004442979957046845,0.0007529699458953936,0.0004394913589446921,2.7491722135750453e-06,0.0,0.0,0.0,2.7491722135750453e-06,0.0,0.0,0.0,2.7491722135750453e-06,-0.145246295545578,-0.022849494876861574,-9.751615241035461,7.53975837175367e-06,0.0,0.0,0.0,7.53975837175367e-06,0.0,0.0,0.0,7.53975837175367e-06
1774725870.2697773,22609,1774725870,269158573,imu_link,-0.9512721533297899,0.3082943461339833,0.005559041160571982,0.0022323759763180065,0.0,0.0,0.0,0.0,0.0,0.0,0.0,0.0,0.0,-0.004142346993390822,0.0011191574762563238,0.00175136809120623,2.7491722135750453e-06,0.0,0.0,0.0,2.7491722135750453e-06,0.0,0.0,0.0,2.7491722135750453e-06,-0.13839144708251952,-0.018044236297607423,-9.738817562574386,7.53975837175367e-06,0.0,0.0,0.0,7.53975837175367e-06,0.0,0.0,0.0,7.53975837175367e-06
1774725870.2738605,22610,1774725870,273158573,imu_link,-0.951267747244674,0.30830869434089575,0.005506887880244382,0.002257483494864457,0.0,0.0,0.0,0.0,0.0,0.0,0.0,0.0,0.0,-0.003406987419648051,0.0024123417322290024,0.0009052848297169387,2.7491722135750453e-06,0.0,0.0,0.0,2.7491722135750453e-06,0.0,0.0,0.0,2.7491722135750453e-06,-0.13277223653984072,-0.009806650161743164,-9.726980935829163,7.53975837175367e-06,0.0,0.0,0.0,7.53975837175367e-06,0.0,0.0,0.0,7.53975837175367e-06
1774725870.277838,22611,1774725870,277158573,imu_link,-0.9512640039021963,0.30832076117964763,0.005466093481861875,0.0022858100560270195,0.0,0.0,0.0,0.0,0.0,0.0,0.0,0.0,0.0,-0.003794851939318751,0.0025772055333723866,-0.00010655235083425383,2.7491722135750453e-06,0.0,0.0,0.0,2.7491722135750453e-06,0.0,0.0,0.0,2.7491722135750453e-06,-0.13971534485435486,-0.013464530672073365,-9.746368683198929,7.53975837175367e-06,0.0,0.0,0.0,7.53975837175367e-06,0.0,0.0,0.0,7.53975837175367e-06
1774725870.281829,22612,1774725870,281158573,imu_link,-0.9512599882502659,0.30833382670250864,0.005424326712824106,0.0022940673058759317,0.0,0.0,0.0,0.0,0.0,0.0,0.0,0.0,0.0,-0.0027604825581243114,0.004436225532841627,0.00042603487041181586,2.7491722135750453e-06,0.0,0.0,0.0,2.7491722135750453e-06,0.0,0.0,0.0,2.7491722135750453e-06,-0.1352238990802765,0.00403053321647644,-9.733306225183487,7.53975837175367e-06,0.0,0.0,0.0,7.53975837175367e-06,0.0,0.0,0.0,7.53975837175367e-06
1774725870.285774,22613,1774725870,285158573,imu_link,-0.9512609279776363,0.30833047926215706,0.005459563986085511,0.002270599519266331,0.0,0.0,0.0,0.0,0.0,0.0,0.0,0.0,0.0,-0.002790310235040894,0.00401982487990082,0.00032569589171466183,2.7491722135750453e-06,0.0,0.0,0.0,2.7491722135750453e-06,0.0,0.0,0.0,2.7491722135750453e-06,-0.12914377597999574,0.005638823843002319,-9.748879185640336,7.53975837175367e-06,0.0,0.0,0.0,7.53975837175367e-06,0.0,0.0,0.0,7.53975837175367e-06
1774725870.2898479,22614,1774725870,289158573,imu_link,-0.9512632641685008,0.30832257753550735,0.005507324464774903,0.0022494004956654474,0.0,0.0,0.0,0.0,0.0,0.0,0.0,0.0,0.0,-0.0018065903087393306,0.005862334064646193,0.0005926789073922345,2.7491722135750453e-06,0.0,0.0,0.0,2.7491722135750453e-06,0.0,0.0,0.0,2.7491722135750453e-06,-0.12505440286254882,-0.004540479024887085,-9.77826971617508,7.53975837175367e-06,0.0,0.0,0.0,7.53975837175367e-06,0.0,0.0,0.0,7.53975837175367e-06
1774725870.2938106,22615,1774725870,293158573,imu_link,-0.9512661394669489,0.3083132330116015,0.005539844106974982,0.002234363634590393,0.0,0.0,0.0,0.0,0.0,0.0,0.0,0.0,0.0,-0.0013469927568116637,0.006204156798649284,-0.0006364866716172921,2.7491722135750453e-06,0.0,0.0,0.0,2.7491722135750453e-06,0.0,0.0,0.0,2.7491722135750453e-06,-0.11806226129722594,-0.011081514682769775,-9.837590143003464,7.53975837175367e-06,0.0,0.0,0.0,7.53975837175367e-06,0.0,0.0,0.0,7.53975837175367e-06
1774725870.2977898,22616,1774725870,297158573,imu_link,-0.9512680773076333,0.3083070341458217,0.005551271729939672,0.0022363304375401074,0.0,0.0,0.0,0.0,0.0,0.0,0.0,0.0,0.0,-0.0009566847761881719,0.005855440014100816,0.0006240773806356123,2.7491722135750453e-06,0.0,0.0,0.0,2.7491722135750453e-06,0.0,0.0,0.0,2.7491722135750453e-06,-0.10711803971672058,-0.02925323743247986,-9.873443255994795,7.53975837175367e-06,0.0,0.0,0.0,7.53975837175367e-06,0.0,0.0,0.0,7.53975837175367e-06
1774725870.3018029,22617,1774725870,301158573,imu_link,-0.9512707039678102,0.308298862450244,0.005554540857613403,0.002237467392700213,0.0,0.0,0.0,0.0,0.0,0.0,0.0,0.0,0.0,-0.0014824303067664238,0.004686558107455174,-0.00042310271726846534,2.7491722135750453e-06,0.0,0.0,0.0,2.7491722135750453e-06,0.0,0.0,0.0,2.7491722135750453e-06,-0.09798804841613769,-0.03168528667259216,-9.882151561338423,7.53975837175367e-06,0.0,0.0,0.0,7.53975837175367e-06,0.0,0.0,0.0,7.53975837175367e-06
1774725870.3058202,22618,1774725870,305158573,imu_link,-0.9512668131814616,0.3083125582054472,0.005438370503262454,0.002289261598957316,0.0,0.0,0.0,0.0,0.0,0.0,0.0,0.0,0.0,-0.00043800782908049693,0.0035817123310652034,4.450589592585541e-06,2.7491722135750453e-06,0.0,0.0,0.0,2.7491722135750453e-06,0.0,0.0,0.0,2.7491722135750453e-06,-0.0923786445236206,-0.043688626470565796,-9.899715271778106,7.53975837175367e-06,0.0,0.0,0.0,7.53975837175367e-06,0.0,0.0,0.0,7.53975837175367e-06
1774725870.3098235,22619,1774725870,309158573,imu_link,-0.9512628311592238,0.3083267040111789,0.005318218367366832,0.0023208192384811146,0.0,0.0,0.0,0.0,0.0,0.0,0.0,0.0,0.0,-0.00039104101890932957,0.002232153940253108,0.0004336445059505111,2.7491722135750453e-06,0.0,0.0,0.0,2.7491722135750453e-06,0.0,0.0,0.0,2.7491722135750453e-06,-0.07650167791175842,-0.029802409841537477,-9.892370090806962,7.53975837175367e-06,0.0,0.0,0.0,7.53975837175367e-06,0.0,0.0,0.0,7.53975837175367e-06
1774725870.3137949,22620,1774725870,313158573,imu_link,-0.9512586736281267,0.30834123829418153,0.0052005368775242524,0.0023603030851854635,0.0,0.0,0.0,0.0,0.0,0.0,0.0,0.0,0.0,-0.001057861512926283,0.0006077236455444255,0.0009136624101265116,2.7491722135750453e-06,0.0,0.0,0.0,2.7491722135750453e-06,0.0,0.0,0.0,2.7491722135750453e-06,-0.07364794271469116,-0.0405995316696167,-9.898322727455138,7.53975837175367e-06,0.0,0.0,0.0,7.53975837175367e-06,0.0,0.0,0.0,7.53975837175367e-06
1774725870.3178294,22621,1774725870,317158573,imu_link,-0.9512549222558259,0.3083545111911537,0.005087370264343425,0.002384738124169576,0.0,0.0,0.0,0.0,0.0,0.0,0.0,0.0,0.0,-0.000316724899359411,0.001367238576134798,0.00036548939866013256,2.7491722135750453e-06,0.0,0.0,0.0,2.7491722135750453e-06,0.0,0.0,0.0,2.7491722135750453e-06,-0.07144144642829894,-0.026909448043823243,-9.891330585889817,7.53975837175367e-06,0.0,0.0,0.0,7.53975837175367e-06,0.0,0.0,0.0,7.53975837175367e-06
1774725870.321792,22622,1774725870,321158573,imu_link,-0.9512507901027152,0.3083687084354847,0.00498958454059038,0.002403753919091139,0.0,0.0,0.0,0.0,0.0,0.0,0.0,0.0,0.0,-0.0018502933532092685,-0.00015123277968530867,0.0010467961254686392,2.7491722135750453e-06,0.0,0.0,0.0,2.7491722135750453e-06,0.0,0.0,0.0,2.7491722135750453e-06,-0.07709007692146301,-0.022643555223464965,-9.841071503810882,7.53975837175367e-06,0.0,0.0,0.0,7.53975837175367e-06,0.0,0.0,0.0,7.53975837175367e-06
1774725870.325838,22623,1774725870,325158573,imu_link,-0.9512479602032299,0.30837871608631845,0.004907988591670754,0.0024077628895496925,0.0,0.0,0.0,0.0,0.0,0.0,0.0,0.0,0.0,-0.000710383912146732,-0.0010857867809581925,0.0005279271921432448,2.7491722135750453e-06,0.0,0.0,0.0,2.7491722135750453e-06,0.0,0.0,0.0,2.7491722135750453e-06,-0.0723828848438263,-0.012542705556869507,-9.83132369355011,7.53975837175367e-06,0.0,0.0,0.0,7.53975837175367e-06,0.0,0.0,0.0,7.53975837175367e-06
1774725870.3297884,22624,1774725870,329158573,imu_link,-0.9512451092220191,0.30838856754680205,0.004840176736166212,0.0024096217095407515,0.0,0.0,0.0,0.0,0.0,0.0,0.0,0.0,0.0,-0.0013277417751621663,-0.0009764768099057875,0.0005626243376728921,2.7491722135750453e-06,0.0,0.0,0.0,2.7491722135750453e-06,0.0,0.0,0.0,2.7491722135750453e-06,-0.0819247554512024,-0.009218251152038575,-9.84567082273674,7.53975837175367e-06,0.0,0.0,0.0,7.53975837175367e-06,0.0,0.0,0.0,7.53975837175367e-06
1774725870.3338342,22625,1774725870,333158573,imu_link,-0.9512426438657274,0.308396891608257,0.004791445399550319,0.0024149096647207756,0.0,0.0,0.0,0.0,0.0,0.0,0.0,0.0,0.0,-0.0018013019611057876,-0.001932027122080163,0.0008607963870836034,2.7491722135750453e-06,0.0,0.0,0.0,2.7491722135750453e-06,0.0,0.0,0.0,2.7491722135750453e-06,-0.08720073323822022,-0.015416054054260254,-9.861175136642457,7.53975837175367e-06,0.0,0.0,0.0,7.53975837175367e-06,0.0,0.0,0.0,7.53975837175367e-06
1774725870.337836,22626,1774725870,337158573,imu_link,-0.9512405036635687,0.3084042532960731,0.004739714256395696,0.0024198858525969163,0.0,0.0,0.0,0.0,0.0,0.0,0.0,0.0,0.0,-0.0011882376080502596,-0.003159098305987296,0.0015214907754260568,2.7491722135750453e-06,0.0,0.0,0.0,2.7491722135750453e-06,0.0,0.0,0.0,2.7491722135750453e-06,-0.0720200387878418,-0.022486648820877073,-9.896037777967452,7.53975837175367e-06,0.0,0.0,0.0,7.53975837175367e-06,0.0,0.0,0.0,7.53975837175367e-06
1774725870.341797,22627,1774725870,341158573,imu_link,-0.9512383867067679,0.30841126137308605,0.004697277720709371,0.0024415355377526366,0.0,0.0,0.0,0.0,0.0,0.0,0.0,0.0,0.0,-0.00018125244281961113,-0.0021480988834770612,0.0014713998258938197,2.7491722135750453e-06,0.0,0.0,0.0,2.7491722135750453e-06,0.0,0.0,0.0,2.7491722135750453e-06,-0.08470984409713744,-0.03344067705154419,-9.8559089655056,7.53975837175367e-06,0.0,0.0,0.0,7.53975837175367e-06,0.0,0.0,0.0,7.53975837175367e-06
1774725870.3457367,22628,1774725870,345158573,imu_link,-0.9512403090490977,0.3084051527819684,0.004711046356803427,0.002437666903387157,0.0,0.0,0.0,0.0,0.0,0.0,0.0,0.0,0.0,-0.0005728868736746188,-0.0032501172264788004,0.0008890183610883517,2.7491722135750453e-06,0.0,0.0,0.0,2.7491722135750453e-06,0.0,0.0,0.0,2.7491722135750453e-06,-0.07652129121208191,-0.031096887662887575,-9.862655940816879,7.53975837175367e-06,0.0,0.0,0.0,7.53975837175367e-06,0.0,0.0,0.0,7.53975837175367e-06
1774725870.3497825,22629,1774725870,349158573,imu_link,-0.9512420561354851,0.30839941637602525,0.00473329817835155,0.0024385459635118973,0.0,0.0,0.0,0.0,0.0,0.0,0.0,0.0,0.0,-0.0025881487477823913,-0.003274010783938603,0.0010758907640993844,2.7491722135750453e-06,0.0,0.0,0.0,2.7491722135750453e-06,0.0,0.0,0.0,2.7491722135750453e-06,-0.08553360271072388,-0.0361473124961853,-9.831206013748169,7.53975837175367e-06,0.0,0.0,0.0,7.53975837175367e-06,0.0,0.0,0.0,7.53975837175367e-06
1774725870.3537817,22630,1774725870,353158573,imu_link,-0.9512418094884566,0.3084000716035865,0.004731348707938669,0.002455617118692321,0.0,0.0,0.0,0.0,0.0,0.0,0.0,0.0,0.0,-0.0023569275284781826,-0.0025427701872305386,0.002571236507330566,2.7491722135750453e-06,0.0,0.0,0.0,2.7491722135750453e-06,0.0,0.0,0.0,2.7491722135750453e-06,-0.08448429114341735,-0.046503135066986084,-9.795745166763306,7.53975837175367e-06,0.0,0.0,0.0,7.53975837175367e-06,0.0,0.0,0.0,7.53975837175367e-06
1774725870.3577976,22631,1774725870,357158573,imu_link,-0.9512419393606549,0.3083998217519775,0.004719305388395071,0.0024598579999374655,0.0,0.0,0.0,0.0,0.0,0.0,0.0,0.0,0.0,-0.0026851716009007563,-0.0020570974162780766,0.00023141320552192815,2.7491722135750453e-06,0.0,0.0,0.0,2.7491722135750453e-06,0.0,0.0,0.0,2.7491722135750453e-06,-0.08622006822204589,-0.02903749112892151,-9.7475552878685,7.53975837175367e-06,0.0,0.0,0.0,7.53975837175367e-06,0.0,0.0,0.0,7.53975837175367e-06
1774725870.3618114,22632,1774725870,361158573,imu_link,-0.9512415622262503,0.3084010492590609,0.004717485844085518,0.0024552874748014664,0.0,0.0,0.0,0.0,0.0,0.0,0.0,0.0,0.0,-0.0037163993894416057,-0.0019879823778991015,0.001014175921748865,2.7491722135750453e-06,0.0,0.0,0.0,2.7491722135750453e-06,0.0,0.0,0.0,2.7491722135750453e-06,-0.09154507925987243,-0.020535125438690186,-9.665846278720856,7.53975837175367e-06,0.0,0.0,0.0,7.53975837175367e-06,0.0,0.0,0.0,7.53975837175367e-06
1774725870.3657045,22633,1774725870,365158573,imu_link,-0.9512393439215837,0.3084085270748146,0.00467196762807787,0.0024624625196213445,0.0,0.0,0.0,0.0,0.0,0.0,0.0,0.0,0.0,-0.0026776143252396204,0.0007739662567968855,0.00025314255470925757,2.7491722135750453e-06,0.0,0.0,0.0,2.7491722135750453e-06,0.0,0.0,0.0,2.7491722135750453e-06,-0.09004466178512573,-0.01937794071960449,-9.6075947767601,7.53975837175367e-06,0.0,0.0,0.0,7.53975837175367e-06,0.0,0.0,0.0,7.53975837175367e-06
1774725870.369724,22634,1774725870,369158573,imu_link,-0.9512367625288167,0.30841669353894646,0.0046533988974715845,0.002471970651183879,0.0,0.0,0.0,0.0,0.0,0.0,0.0,0.0,0.0,-0.00328102700753162,0.0013153150308879665,0.0006871535798026875,2.7491722135750453e-06,0.0,0.0,0.0,2.7491722135750453e-06,0.0,0.0,0.0,2.7491722135750453e-06,-0.11364926872444153,-0.015788706760406494,-9.628355455152512,7.53975837175367e-06,0.0,0.0,0.0,7.53975837175367e-06,0.0,0.0,0.0,7.53975837175367e-06
1774725870.3737922,22635,1774725870,373158573,imu_link,-0.9512366552413883,0.3084167662183654,0.004679733411423461,0.0024544114936738545,0.0,0.0,0.0,0.0,0.0,0.0,0.0,0.0,0.0,-0.004729231407666435,0.0028814687818725583,0.00036093408931242734,2.7491722135750453e-06,0.0,0.0,0.0,2.7491722135750453e-06,0.0,0.0,0.0,2.7491722135750453e-06,-0.11968035857391357,-0.003697107110977173,-9.636553814687728,7.53975837175367e-06,0.0,0.0,0.0,7.53975837175367e-06,0.0,0.0,0.0,7.53975837175367e-06
1774725870.377816,22636,1774725870,377158573,imu_link,-0.9512386759275854,0.308409682658998,0.00474250151569525,0.0024408484353516282,0.0,0.0,0.0,0.0,0.0,0.0,0.0,0.0,0.0,-0.004037121092788083,0.003672626531801588,0.00021146409217163298,2.7491722135750453e-06,0.0,0.0,0.0,2.7491722135750453e-06,0.0,0.0,0.0,2.7491722135750453e-06,-0.12879073657417298,-0.014435389038085937,-9.695933081417083,7.53975837175367e-06,0.0,0.0,0.0,7.53975837175367e-06,0.0,0.0,0.0,7.53975837175367e-06
1774725870.3817885,22637,1774725870,381158573,imu_link,-0.9512406528719717,0.3084026873832843,0.004814437355660676,0.0024132822921436926,0.0,0.0,0.0,0.0,0.0,0.0,0.0,0.0,0.0,-0.004947188124655487,0.00476153745212085,8.250171374177196e-05,2.7491722135750453e-06,0.0,0.0,0.0,2.7491722135750453e-06,0.0,0.0,0.0,2.7491722135750453e-06,-0.1376559483203888,0.0003334261054992676,-9.73001119072914,7.53975837175367e-06,0.0,0.0,0.0,7.53975837175367e-06,0.0,0.0,0.0,7.53975837175367e-06
1774725870.385797,22638,1774725870,385158573,imu_link,-0.9512418706212034,0.3083982571729929,0.004859871255531755,0.0024083606694444053,0.0,0.0,0.0,0.0,0.0,0.0,0.0,0.0,0.0,-0.004882122250141139,0.003146619201835537,0.00019566886244108428,2.7491722135750453e-06,0.0,0.0,0.0,2.7491722135750453e-06,0.0,0.0,0.0,2.7491722135750453e-06,-0.1288005432243347,-0.019976146379470826,-9.826734181274414,7.53975837175367e-06,0.0,0.0,0.0,7.53975837175367e-06,0.0,0.0,0.0,7.53975837175367e-06
1774725870.3897715,22639,1774725870,389158573,imu_link,-0.9512424282735948,0.3083956969852814,0.004923264655725165,0.002387089911737319,0.0,0.0,0.0,0.0,0.0,0.0,0.0,0.0,0.0,-0.004765935681835876,0.003478702998612498,0.0010263234133427457,2.7491722135750453e-06,0.0,0.0,0.0,2.7491722135750453e-06,0.0,0.0,0.0,2.7491722135750453e-06,-0.14313786576080323,0.0007354987621307372,-9.885426982492447,7.53975837175367e-06,0.0,0.0,0.0,7.53975837175367e-06,0.0,0.0,0.0,7.53975837175367e-06
1774725870.3937643,22640,1774725870,393158573,imu_link,-0.9512427841140532,0.30839381073738376,0.004975424861685883,0.0023808228126804376,0.0,0.0,0.0,0.0,0.0,0.0,0.0,0.0,0.0,-0.0032980090611535247,0.0030811344483007096,0.00040809288570131414,2.7491722135750453e-06,0.0,0.0,0.0,2.7491722135750453e-06,0.0,0.0,0.0,2.7491722135750453e-06,-0.14530513544654847,-0.006766588611602783,-9.885662342096328,7.53975837175367e-06,0.0,0.0,0.0,7.53975837175367e-06,0.0,0.0,0.0,7.53975837175367e-06
1774725870.3978033,22641,1774725870,397158573,imu_link,-0.9512429387620829,0.308392527774087,0.005024661663675588,0.002381815179743884,0.0,0.0,0.0,0.0,0.0,0.0,0.0,0.0,0.0,-0.0041657867652451054,0.0011910301348534503,-0.00022453660826907048,2.7491722135750453e-06,0.0,0.0,0.0,2.7491722135750453e-06,0.0,0.0,0.0,2.7491722135750453e-06,-0.14961025486755372,-0.009659550409317017,-9.88207310813713,7.53975837175367e-06,0.0,0.0,0.0,7.53975837175367e-06,0.0,0.0,0.0,7.53975837175367e-06
1774725870.4017658,22642,1774725870,401158573,imu_link,-0.9512430202846108,0.3083915957360596,0.00506536815912451,0.0023837123548659882,0.0,0.0,0.0,0.0,0.0,0.0,0.0,0.0,0.0,-0.0029795388325421198,0.002686690037349991,-0.00014128440294894096,2.7491722135750453e-06,0.0,0.0,0.0,2.7491722135750453e-06,0.0,0.0,0.0,2.7491722135750453e-06,-0.14617792731094362,-0.009845876762390135,-9.839855479190826,7.53975837175367e-06,0.0,0.0,0.0,7.53975837175367e-06,0.0,0.0,0.0,7.53975837175367e-06
1774725870.4058218,22643,1774725870,405158573,imu_link,-0.9512421338294389,0.3083940610050848,0.005085170742286727,0.002376342342700332,0.0,0.0,0.0,0.0,0.0,0.0,0.0,0.0,0.0,-0.002066609460701446,0.001198814303317345,-0.0002621484536495483,2.7491722135750453e-06,0.0,0.0,0.0,2.7491722135750453e-06,0.0,0.0,0.0,2.7491722135750453e-06,-0.13747942861747742,0.004844485179901123,-9.825606416505813,7.53975837175367e-06,0.0,0.0,0.0,7.53975837175367e-06,0.0,0.0,0.0,7.53975837175367e-06
1774725870.4097812,22644,1774725870,409158573,imu_link,-0.9512413299037283,0.3083966977922042,0.005074607023266051,0.002378536821161591,0.0,0.0,0.0,0.0,0.0,0.0,0.0,0.0,0.0,-0.0012556247704697606,0.0018241657743069135,-0.00017968164649281623,2.7491722135750453e-06,0.0,0.0,0.0,2.7491722135750453e-06,0.0,0.0,0.0,2.7491722135750453e-06,-0.11514968619918824,-0.009963556564331054,-9.783839893466949,7.53975837175367e-06,0.0,0.0,0.0,7.53975837175367e-06,0.0,0.0,0.0,7.53975837175367e-06
1774725870.4137852,22645,1774725870,413158573,imu_link,-0.9512402929853798,0.30840016149544874,0.005054259274440599,0.0023874366706807663,0.0,0.0,0.0,0.0,0.0,0.0,0.0,0.0,0.0,-0.0017140354985060713,0.0008040731863937876,-0.0005625021646252524,2.7491722135750453e-06,0.0,0.0,0.0,2.7491722135750453e-06,0.0,0.0,0.0,2.7491722135750453e-06,-0.11316874286651611,-0.014494228939056397,-9.787821393432617,7.53975837175367e-06,0.0,0.0,0.0,7.53975837175367e-06,0.0,0.0,0.0,7.53975837175367e-06
1774725870.417803,22646,1774725870,417158573,imu_link,-0.951238975981447,0.308404730675074,0.005014020119697789,0.0024067142003962507,0.0,0.0,0.0,0.0,0.0,0.0,0.0,0.0,0.0,-0.0007726398065653698,0.0016482016791208452,-0.0007622201909309636,2.7491722135750453e-06,0.0,0.0,0.0,2.7491722135750453e-06,0.0,0.0,0.0,2.7491722135750453e-06,-0.10618640795135499,-0.022800461626052853,-9.766374249528885,7.53975837175367e-06,0.0,0.0,0.0,7.53975837175367e-06,0.0,0.0,0.0,7.53975837175367e-06
1774725870.4218333,22647,1774725870,421158573,imu_link,-0.9512375387896069,0.30840960589598615,0.004972972716719764,0.002435021751937161,0.0,0.0,0.0,0.0,0.0,0.0,0.0,0.0,0.0,-0.001038156745671267,0.0016276940604099117,-0.0004794070389378024,2.7491722135750453e-06,0.0,0.0,0.0,2.7491722135750453e-06,0.0,0.0,0.0,2.7491722135750453e-06,-0.10670616040992736,-0.03250904528617859,-9.7729839317379,7.53975837175367e-06,0.0,0.0,0.0,7.53975837175367e-06,0.0,0.0,0.0,7.53975837175367e-06
1774725870.4258428,22648,1774725870,425158573,imu_link,-0.9512411296817067,0.3083982235863335,0.004995632247464089,0.0024274573348695293,0.0,0.0,0.0,0.0,0.0,0.0,0.0,0.0,0.0,0.0002904576941168963,0.002010217872569509,-0.0007471929060712925,2.7491722135750453e-06,0.0,0.0,0.0,2.7491722135750453e-06,0.0,0.0,0.0,2.7491722135750453e-06,-0.08579838226509094,-0.029851443092346188,-9.771669840616227,7.53975837175367e-06,0.0,0.0,0.0,7.53975837175367e-06,0.0,0.0,0.0,7.53975837175367e-06
1774725870.4298503,22649,1774725870,429158573,imu_link,-0.9512437818843281,0.30838938080652395,0.0050393882592687685,0.0024211150616322034,0.0,0.0,0.0,0.0,0.0,0.0,0.0,0.0,0.0,-0.0007095461541057748,0.002477966112103989,0.0005344023636681438,2.7491722135750453e-06,0.0,0.0,0.0,2.7491722135750453e-06,0.0,0.0,0.0,2.7491722135750453e-06,-0.10698074661445618,-0.026301435733795165,-9.817584576673507,7.53975837175367e-06,0.0,0.0,0.0,7.53975837175367e-06,0.0,0.0,0.0,7.53975837175367e-06
1774725870.4337811,22650,1774725870,433158573,imu_link,-0.9512458431898435,0.30838251857267596,0.00506984120930426,0.0024217272615425717,0.0,0.0,0.0,0.0,0.0,0.0,0.0,0.0,0.0,-0.0006191555521449884,0.0015311948060671454,3.431317309420852e-05,2.7491722135750453e-06,0.0,0.0,0.0,2.7491722135750453e-06,0.0,0.0,0.0,2.7491722135750453e-06,-0.10940298920440673,-0.02656621528816223,-9.835775912723541,7.53975837175367e-06,0.0,0.0,0.0,7.53975837175367e-06,0.0,0.0,0.0,7.53975837175367e-06
1774725870.4378257,22651,1774725870,437158573,imu_link,-0.951246792240549,0.30837936826623247,0.00508718106781936,0.0024137250400147856,0.0,0.0,0.0,0.0,0.0,0.0,0.0,0.0,0.0,-0.0008143880822730741,0.0011283204548292942,0.0003661002638983306,2.7491722135750453e-06,0.0,0.0,0.0,2.7491722135750453e-06,0.0,0.0,0.0,2.7491722135750453e-06,-0.10811831803321839,-0.013797956777572633,-9.84645535474968,7.53975837175367e-06,0.0,0.0,0.0,7.53975837175367e-06,0.0,0.0,0.0,7.53975837175367e-06
1774725870.441791,22652,1774725870,441158573,imu_link,-0.9512483675462371,0.3083743639305553,0.0051040962740521246,0.002396479140257364,0.0,0.0,0.0,0.0,0.0,0.0,0.0,0.0,0.0,-0.0003626794185644217,0.0005702863330891472,-0.0006820223118018242,2.7491722135750453e-06,0.0,0.0,0.0,2.7491722135750453e-06,0.0,0.0,0.0,2.7491722135750453e-06,-0.10451927742385865,-0.004471832473754883,-9.830490128286362,7.53975837175367e-06,0.0,0.0,0.0,7.53975837175367e-06,0.0,0.0,0.0,7.53975837175367e-06
1774725870.4458377,22653,1774725870,445158573,imu_link,-0.9512478278313897,0.3083760790169459,0.005100858809568387,0.002396909593980108,0.0,0.0,0.0,0.0,0.0,0.0,0.0,0.0,0.0,-0.0010944959739256441,0.0006598042704239363,5.235987755982989e-07,2.7491722135750453e-06,0.0,0.0,0.0,2.7491722135750453e-06,0.0,0.0,0.0,2.7491722135750453e-06,-0.11466916034126282,-0.01016949621772766,-9.81146522697258,7.53975837175367e-06,0.0,0.0,0.0,7.53975837175367e-06,0.0,0.0,0.0,7.53975837175367e-06
1774725870.44985,22654,1774725870,449158573,imu_link,-0.9512465746641197,0.3083799023984734,0.005099946153413839,0.0024042744684414454,0.0,0.0,0.0,0.0,0.0,0.0,0.0,0.0,0.0,-0.0008050680240674244,0.0021920986339198376,0.0011318809265033628,2.7491722135750453e-06,0.0,0.0,0.0,2.7491722135750453e-06,0.0,0.0,0.0,2.7491722135750453e-06,-0.12092580314445496,-0.015043401348114013,-9.779721100399017,7.53975837175367e-06,0.0,0.0,0.0,7.53975837175367e-06,0.0,0.0,0.0,7.53975837175367e-06
1774725870.453799,22655,1774725870,453158573,imu_link,-0.9512428219022332,0.30839226719500873,0.0050411405975862005,0.002426976570532548,0.0,0.0,0.0,0.0,0.0,0.0,0.0,0.0,0.0,-0.0010303551239148525,0.0013399765332186464,0.0011972260536980304,2.7491722135750453e-06,0.0,0.0,0.0,2.7491722135750453e-06,0.0,0.0,0.0,2.7491722135750453e-06,-0.10784373182868957,-0.01869147520828247,-9.74890860559082,7.53975837175367e-06,0.0,0.0,0.0,7.53975837175367e-06,0.0,0.0,0.0,7.53975837175367e-06
1774725870.4578323,22656,1774725870,457158573,imu_link,-0.9512367067151752,0.3084123894153381,0.004942072808413736,0.002470175934206554,0.0,0.0,0.0,0.0,0.0,0.0,0.0,0.0,0.0,-0.0019322191082978824,0.0015132179147716036,0.0010167764623343367,2.7491722135750453e-06,0.0,0.0,0.0,2.7491722135750453e-06,0.0,0.0,0.0,2.7491722135750453e-06,-0.10999138821411134,-0.024467592153549194,-9.726166983865738,7.53975837175367e-06,0.0,0.0,0.0,7.53975837175367e-06,0.0,0.0,0.0,7.53975837175367e-06
1774725870.4618168,22657,1774725870,461158573,imu_link,-0.9512307171793043,0.30843191402733816,0.004861684387445706,0.0024982251491838733,0.0,0.0,0.0,0.0,0.0,0.0,0.0,0.0,0.0,-0.0019245920194666671,0.0005815262534719906,0.0007327764864498193,2.7491722135750453e-06,0.0,0.0,0.0,2.7491722135750453e-06,0.0,0.0,0.0,2.7491722135750453e-06,-0.11799361474609374,-0.00793357998085022,-9.728206767099381,7.53975837175367e-06,0.0,0.0,0.0,7.53975837175367e-06,0.0,0.0,0.0,7.53975837175367e-06
1774725870.4658384,22658,1774725870,465158573,imu_link,-0.9512217774829242,0.30846098245124315,0.004733029494573102,0.0025594490116343563,0.0,0.0,0.0,0.0,0.0,0.0,0.0,0.0,0.0,-0.0011648501960735355,0.0011578339724805182,0.00026726226835789167,2.7491722135750453e-06,0.0,0.0,0.0,2.7491722135750453e-06,0.0,0.0,0.0,2.7491722135750453e-06,-0.12280867997550964,-0.01899548136329651,-9.766472316030502,7.53975837175367e-06,0.0,0.0,0.0,7.53975837175367e-06,0.0,0.0,0.0,7.53975837175367e-06
1774725870.4697926,22659,1774725870,469158573,imu_link,-0.9512131166914217,0.30848897357178784,0.00461410814315065,0.002621035074143739,0.0,0.0,0.0,0.0,0.0,0.0,0.0,0.0,0.0,-0.0018698061342465652,0.0015837990297222545,-0.0001456128194938869,2.7491722135750453e-06,0.0,0.0,0.0,2.7491722135750453e-06,0.0,0.0,0.0,2.7491722135750453e-06,-0.12941836218452454,-0.020741065092086793,-9.798883294815063,7.53975837175367e-06,0.0,0.0,0.0,7.53975837175367e-06,0.0,0.0,0.0,7.53975837175367e-06
1774725870.4737055,22660,1774725870,473158573,imu_link,-0.9512056917738088,0.3085131868945129,0.004509925867084782,0.0026468883570819673,0.0,0.0,0.0,0.0,0.0,0.0,0.0,0.0,0.0,-0.003145833803672139,0.001067408463934692,0.0005701641600415077,2.7491722135750453e-06,0.0,0.0,0.0,2.7491722135750453e-06,0.0,0.0,0.0,2.7491722135750453e-06,-0.11068766037559509,-0.005540757341384888,-9.817525736772538,7.53975837175367e-06,0.0,0.0,0.0,7.53975837175367e-06,0.0,0.0,0.0,7.53975837175367e-06
1774725870.4778068,22661,1774725870,477158573,imu_link,-0.9511993419274748,0.30853359540552344,0.004439331066945913,0.002669225085587537,0.0,0.0,0.0,0.0,0.0,0.0,0.0,0.0,0.0,-0.0028349208507218696,0.0019184135539146072,0.0012518897658704926,2.7491722135750453e-06,0.0,0.0,0.0,2.7491722135750453e-06,0.0,0.0,0.0,2.7491722135750453e-06,-0.11986668492698668,-0.009237864452362061,-9.833618449687958,7.53975837175367e-06,0.0,0.0,0.0,7.53975837175367e-06,0.0,0.0,0.0,7.53975837175367e-06
1774725870.481826,22662,1774725870,481158573,imu_link,-0.9511933476621547,0.3085531473109139,0.004356101442296149,0.002682354938725963,0.0,0.0,0.0,0.0,0.0,0.0,0.0,0.0,0.0,-0.0031445771666107035,0.0028981017696440643,0.000988641754792188,2.7491722135750453e-06,0.0,0.0,0.0,2.7491722135750453e-06,0.0,0.0,0.0,2.7491722135750453e-06,-0.10561762224197388,-0.007374600921630859,-9.83790395580864,7.53975837175367e-06,0.0,0.0,0.0,7.53975837175367e-06,0.0,0.0,0.0,7.53975837175367e-06
1774725870.485836,22663,1774725870,485158573,imu_link,-0.9511935561081107,0.30855236508103406,0.004375958289715635,0.0026660477027598355,0.0,0.0,0.0,0.0,0.0,0.0,0.0,0.0,0.0,-0.0028518679977587343,0.0017698336746923297,0.0007202799290055399,2.7491722135750453e-06,0.0,0.0,0.0,2.7491722135750453e-06,0.0,0.0,0.0,2.7491722135750453e-06,-0.1037151321105957,-0.013748923526763917,-9.806110795984267,7.53975837175367e-06,0.0,0.0,0.0,7.53975837175367e-06,0.0,0.0,0.0,7.53975837175367e-06
1774725870.489794,22664,1774725870,489158573,imu_link,-0.951193930487024,0.3085508261511275,0.0044045496094667555,0.002663499360069313,0.0,0.0,0.0,0.0,0.0,0.0,0.0,0.0,0.0,-0.0015969413589897717,0.002868047199924722,0.00028789206011646464,2.7491722135750453e-06,0.0,0.0,0.0,2.7491722135750453e-06,0.0,0.0,0.0,2.7491722135750453e-06,-0.1178465149936676,-0.02026053923416138,-9.79965802017784,7.53975837175367e-06,0.0,0.0,0.0,7.53975837175367e-06,0.0,0.0,0.0,7.53975837175367e-06
1774725870.4938073,22665,1774725870,493158573,imu_link,-0.9511945123574911,0.3085491083105264,0.004407393589145612,0.0026499629288695725,0.0,0.0,0.0,0.0,0.0,0.0,0.0,0.0,0.0,-0.0020965244040806286,0.002895099803330634,0.0004550422425799616,2.7491722135750453e-06,0.0,0.0,0.0,2.7491722135750453e-06,0.0,0.0,0.0,2.7491722135750453e-06,-0.09054480094337464,-0.02020169933319092,-9.783467240760803,7.53975837175367e-06,0.0,0.0,0.0,7.53975837175367e-06,0.0,0.0,0.0,7.53975837175367e-06
1774725870.4977636,22666,1774725870,497158573,imu_link,-0.9511952180215707,0.3085468803488431,0.0044171843333470585,0.0026397580303220945,0.0,0.0,0.0,0.0,0.0,0.0,0.0,0.0,0.0,-0.001696582205986128,0.0028996376593858194,0.00048741810020445643,2.7491722135750453e-06,0.0,0.0,0.0,2.7491722135750453e-06,0.0,0.0,0.0,2.7491722135750453e-06,-0.09490876026535035,-0.021878636510849,-9.764814992153168,7.53975837175367e-06,0.0,0.0,0.0,7.53975837175367e-06,0.0,0.0,0.0,7.53975837175367e-06
1774725870.5018187,22667,1774725870,501158573,imu_link,-0.9511954854572134,0.30854604164915683,0.004425607159212788,0.0026272856192553363,0.0,0.0,0.0,0.0,0.0,0.0,0.0,0.0,0.0,-0.0011980987183240275,0.003286489888090362,0.0011845200567435115,2.7491722135750453e-06,0.0,0.0,0.0,2.7491722135750453e-06,0.0,0.0,0.0,2.7491722135750453e-06,-0.09438900780677795,-0.01907393456459045,-9.796627765277863,7.53975837175367e-06,0.0,0.0,0.0,7.53975837175367e-06,0.0,0.0,0.0,7.53975837175367e-06
1774725870.505797,22668,1774725870,505158573,imu_link,-0.9511951131267964,0.30854749743818755,0.004403626538424432,0.0026280528233796063,0.0,0.0,0.0,0.0,0.0,0.0,0.0,0.0,0.0,-0.0016892692764202716,0.003965196074313397,0.0006055768905644725,2.7491722135750453e-06,0.0,0.0,0.0,2.7491722135750453e-06,0.0,0.0,0.0,2.7491722135750453e-06,-0.08726937978935242,-0.029468983736038207,-9.799442273874282,7.53975837175367e-06,0.0,0.0,0.0,7.53975837175367e-06,0.0,0.0,0.0,7.53975837175367e-06
1774725870.509787,22669,1774725870,509158573,imu_link,-0.9511948178489426,0.30854881473368584,0.004381064932791068,0.002617956036468434,0.0,0.0,0.0,0.0,0.0,0.0,0.0,0.0,0.0,-0.002006535227847801,0.002196427050464784,0.0005532170130046427,2.7491722135750453e-06,0.0,0.0,0.0,2.7491722135750453e-06,0.0,0.0,0.0,2.7491722135750453e-06,-0.07999284536933898,-0.02122159095001221,-9.828185565498353,7.53975837175367e-06,0.0,0.0,0.0,7.53975837175367e-06,0.0,0.0,0.0,7.53975837175367e-06
1774725870.5138295,22670,1774725870,513158573,imu_link,-0.9511952066861962,0.30854772341599446,0.004375609128504686,0.0026144209236297396,0.0,0.0,0.0,0.0,0.0,0.0,0.0,0.0,0.0,-0.0010181029125658522,0.003522755108932835,0.0008192400975936184,2.7491722135750453e-06,0.0,0.0,0.0,2.7491722135750453e-06,0.0,0.0,0.0,2.7491722135750453e-06,-0.08651426772689819,-0.02925323743247986,-9.83829622181511,7.53975837175367e-06,0.0,0.0,0.0,7.53975837175367e-06,0.0,0.0,0.0,7.53975837175367e-06
1774725870.5178201,22671,1774725870,517158573,imu_link,-0.9511967413166289,0.30854290139795015,0.004394826301084401,0.002592837701160529,0.0,0.0,0.0,0.0,0.0,0.0,0.0,0.0,0.0,-0.001876612918329343,0.002465225208564431,0.000254538818110853,2.7491722135750453e-06,0.0,0.0,0.0,2.7491722135750453e-06,0.0,0.0,0.0,2.7491722135750453e-06,-0.08906399676895141,-0.01670072522544861,-9.864764370601655,7.53975837175367e-06,0.0,0.0,0.0,7.53975837175367e-06,0.0,0.0,0.0,7.53975837175367e-06
1774725870.521837,22672,1774725870,521158573,imu_link,-0.9511981627108997,0.3085385201646076,0.004406531653443693,0.00257280174708685,0.0,0.0,0.0,0.0,0.0,0.0,0.0,0.0,0.0,-0.003859935267125619,0.0007763049979945578,0.000471518150718788,2.7491722135750453e-06,0.0,0.0,0.0,2.7491722135750453e-06,0.0,0.0,0.0,2.7491722135750453e-06,-0.08022820497322083,-0.02303582122993469,-9.844513638017654,7.53975837175367e-06,0.0,0.0,0.0,7.53975837175367e-06,0.0,0.0,0.0,7.53975837175367e-06
1774725870.5257833,22673,1774725870,525158573,imu_link,-0.951197438586056,0.3085409948152281,0.004386789191856215,0.002577484498852315,0.0,0.0,0.0,0.0,0.0,0.0,0.0,0.0,0.0,-0.0026173131995832167,0.0014245028288927318,0.00012135274289116574,2.7491722135750453e-06,0.0,0.0,0.0,2.7491722135750453e-06,0.0,0.0,0.0,2.7491722135750453e-06,-0.0936731223449707,-0.026850608142852783,-9.818065102531433,7.53975837175367e-06,0.0,0.0,0.0,7.53975837175367e-06,0.0,0.0,0.0,7.53975837175367e-06
1774725870.5298345,22674,1774725870,529158573,imu_link,-0.9511968420106721,0.30854306254714875,0.004372154522502329,0.002574988889741854,0.0,0.0,0.0,0.0,0.0,0.0,0.0,0.0,0.0,-0.004161772507965519,0.0008075812981902963,-5.9184114935127714e-05,2.7491722135750453e-06,0.0,0.0,0.0,2.7491722135750453e-06,0.0,0.0,0.0,2.7491722135750453e-06,-0.09431055460548401,-0.02243761557006836,-9.818123942432402,7.53975837175367e-06,0.0,0.0,0.0,7.53975837175367e-06,0.0,0.0,0.0,7.53975837175367e-06
1774725870.533795,22675,1774725870,533158573,imu_link,-0.9511930487597217,0.30855555937059226,0.0043069883141483535,0.0025885564217386315,0.0,0.0,0.0,0.0,0.0,0.0,0.0,0.0,0.0,-0.004028027927385193,0.0005774770896073638,-0.000591265190698119,2.7491722135750453e-06,0.0,0.0,0.0,2.7491722135750453e-06,0.0,0.0,0.0,2.7491722135750453e-06,-0.09951788584136964,-0.015337600852966309,-9.809484283639907,7.53975837175367e-06,0.0,0.0,0.0,7.53975837175367e-06,0.0,0.0,0.0,7.53975837175367e-06
1774725870.5378115,22676,1774725870,537158573,imu_link,-0.9511877743815204,0.3085726057560515,0.004228733772204815,0.002623481414891848,0.0,0.0,0.0,0.0,0.0,0.0,0.0,0.0,0.0,-0.0025909063680005424,0.00025987952562195565,-0.00016311847189139005,2.7491722135750453e-06,0.0,0.0,0.0,2.7491722135750453e-06,0.0,0.0,0.0,2.7491722135750453e-06,-0.10597066164779663,-0.024389138952255248,-9.783820280166626,7.53975837175367e-06,0.0,0.0,0.0,7.53975837175367e-06,0.0,0.0,0.0,7.53975837175367e-06
1774725870.541809,22677,1774725870,541158573,imu_link,-0.9511823907227015,0.30858980586867546,0.004154243144019079,0.0026708719324338493,0.0,0.0,0.0,0.0,0.0,0.0,0.0,0.0,0.0,-0.0019153592277236172,-0.0005663244356871201,0.00033213615665452086,2.7491722135750453e-06,0.0,0.0,0.0,2.7491722135750453e-06,0.0,0.0,0.0,2.7491722135750453e-06,-0.10679442026138306,-0.0369416511592865,-9.810798374761582,7.53975837175367e-06,0.0,0.0,0.0,7.53975837175367e-06,0.0,0.0,0.0,7.53975837175367e-06
1774725870.545825,22678,1774725870,545158573,imu_link,-0.9511776594390554,0.30860492208225543,0.004094934809604141,0.0027006961233187582,0.0,0.0,0.0,0.0,0.0,0.0,0.0,0.0,0.0,-0.0016256520251850784,-0.001411151060114975,-6.855653301833727e-05,2.7491722135750453e-06,0.0,0.0,0.0,2.7491722135750453e-06,0.0,0.0,0.0,2.7491722135750453e-06,-0.10512728973388673,-0.023967452995300294,-9.815937059446336,7.53975837175367e-06,0.0,0.0,0.0,7.53975837175367e-06,0.0,0.0,0.0,7.53975837175367e-06
1774725870.5497863,22679,1774725870,549158573,imu_link,-0.9511725256472731,0.3086210233309963,0.004049811908991305,0.0027366832878248427,0.0,0.0,0.0,0.0,0.0,0.0,0.0,0.0,0.0,-0.0025315128135551756,-0.000524157280958937,0.0005659928231292412,2.7491722135750453e-06,0.0,0.0,0.0,2.7491722135750453e-06,0.0,0.0,0.0,2.7491722135750453e-06,-0.11918021941566467,-0.028507932020187376,-9.841601062919615,7.53975837175367e-06,0.0,0.0,0.0,7.53975837175367e-06,0.0,0.0,0.0,7.53975837175367e-06
1774725870.553808,22680,1774725870,553158573,imu_link,-0.9511748056774203,0.3086132487395051,0.004119142901384551,0.0027174268579031407,0.0,0.0,0.0,0.0,0.0,0.0,0.0,0.0,0.0,-0.0014304893082270726,-0.0008760854713310736,-3.478441199224699e-05,2.7491722135750453e-06,0.0,0.0,0.0,2.7491722135750453e-06,0.0,0.0,0.0,2.7491722135750453e-06,-0.11486529334449767,-0.012915358263015748,-9.860066985174178,7.53975837175367e-06,0.0,0.0,0.0,7.53975837175367e-06,0.0,0.0,0.0,7.53975837175367e-06
